delay,freq,condition,trials.thisRepN,trials.thisTrialN,trials.thisN,trials.thisIndex,polygon.started,polygon_2.started,key_resp.started,polygon.stopped,key_resp.keys,key_resp.rt,sound_1.started,text.started,textbox.started,button.started,textbox.text,button.numClicks,button.timesOn,button.timesOff,sound_1.stopped,participant,session,date,expName,psychopyVersion,frameRate,
0.7,1000.0,exp,0,0,0,8,28.46196709992364,29.449553000042215,29.449553000042215,29.465978299966082,space,0.30069629987701774,30.466356320097113,30.782039599958807,30.782039599958807,30.782039599958807,300,1,[5.331308400025591],[5.331316500203684],,sudhanshu,001,2022-11-09_18h23.50.514,tutorial 7,2022.2.2,59.93069614550428,
0.7,1000.0,exp,0,1,1,11,36.099694000091404,37.099726299988106,37.099726299988106,37.099726299988106,space,0.5637522998731583,38.383118320046925,38.683078800095245,38.683078800095245,38.683078800095245,"150
",2,"[5.331308400025591, 5.636252099880949]","[5.331316500203684, 5.636258800048381]",,sudhanshu,001,2022-11-09_18h23.50.514,tutorial 7,2022.2.2,59.93069614550428,
0.1,400.0,unexp,0,2,2,0,44.31673389999196,45.316843800013885,45.316843800013885,45.316843800013885,space,0.5675772000104189,46.00030902007129,46.301739100134,46.301739100134,46.301739100134,0,3,"[5.331308400025591, 5.636252099880949, 4.816584900021553]","[5.331316500203684, 5.636258800048381, 4.816592999966815]",,sudhanshu,001,2022-11-09_18h23.50.514,tutorial 7,2022.2.2,59.93069614550428,
0.7,1000.0,exp,0,3,3,5,51.11692399997264,52.11716610006988,52.11716610006988,52.11716610006988,space,0.5621741998475045,53.40049341998529,53.700682000024244,53.700682000024244,53.700682000024244,"200
",4,"[5.331308400025591, 5.636252099880949, 4.816584900021553, 4.498150700004771]","[5.331316500203684, 5.636258800048381, 4.816592999966815, 4.49815719993785]",,sudhanshu,001,2022-11-09_18h23.50.514,tutorial 7,2022.2.2,59.93069614550428,
0.4,1000.0,exp,0,4,4,10,58.200939800124615,59.20085639995523,59.20085639995523,59.20085639995523,space,0.3562811999581754,59.98465842010919,60.286035400116816,60.286035400116816,60.286035400116816,200,5,"[5.331308400025591, 5.636252099880949, 4.816584900021553, 4.498150700004771, 3.714333200128749]","[5.331316500203684, 5.636258800048381, 4.816592999966815, 4.49815719993785, 3.7143385000526905]",60.286035400116816,sudhanshu,001,2022-11-09_18h23.50.514,tutorial 7,2022.2.2,59.93069614550428,
0.1,1000.0,exp,0,5,5,9,64.00099570001476,65.00116909993812,65.00116909993812,65.00116909993812,space,0.5246284997556359,65.65132322001736,65.95289049996063,65.95289049996063,65.95289049996063,0,6,"[5.331308400025591, 5.636252099880949, 4.816584900021553, 4.498150700004771, 3.714333200128749, 3.1334275000263005]","[5.331316500203684, 5.636258800048381, 4.816592999966815, 4.49815719993785, 3.7143385000526905, 3.1334343999624252]",,sudhanshu,001,2022-11-09_18h23.50.514,tutorial 7,2022.2.2,59.93069614550428,
0.7,400.0,unexp,0,6,6,2,69.08438359992579,70.08456009998918,70.08456009998918,70.08456009998918,space,0.8761181998997927,71.684702419932,71.98595919995569,71.98595919995569,71.98595919995569,350,7,"[5.331308400025591, 5.636252099880949, 4.816584900021553, 4.498150700004771, 3.714333200128749, 3.1334275000263005, 5.547268700087443]","[5.331316500203684, 5.636258800048381, 4.816592999966815, 4.49815719993785, 3.7143385000526905, 3.1334343999624252, 5.547276700148359]",71.98595919995569,sudhanshu,001,2022-11-09_18h23.50.514,tutorial 7,2022.2.2,59.93069614550428,
0.4,1000.0,exp,0,7,7,4,77.53476820001379,78.5346639000345,78.5346639000345,78.5346639000345,space,0.7091363000217825,79.66852002011146,79.99024920002557,79.99024920002557,79.99024920002557,100,8,"[5.331308400025591, 5.636252099880949, 4.816584900021553, 4.498150700004771, 3.714333200128749, 3.1334275000263005, 5.547268700087443, 3.634588399901986]","[5.331316500203684, 5.636258800048381, 4.816592999966815, 4.49815719993785, 3.7143385000526905, 3.1334343999624252, 5.547276700148359, 3.634594799950719]",,sudhanshu,001,2022-11-09_18h23.50.514,tutorial 7,2022.2.2,59.93069614550428,
0.1,1000.0,exp,0,8,8,6,83.60173780005425,84.60166250006296,84.60166250006296,84.60166250006296,space,0.3787606998812407,85.10192352000158,85.4027585000731,85.4027585000731,85.4027585000731,0,9,"[5.331308400025591, 5.636252099880949, 4.816584900021553, 4.498150700004771, 3.714333200128749, 3.1334275000263005, 5.547268700087443, 3.634588399901986, 2.314312499947846]","[5.331316500203684, 5.636258800048381, 4.816592999966815, 4.49815719993785, 3.7143385000526905, 3.1334343999624252, 5.547276700148359, 3.634594799950719, 2.3143195000011474]",,sudhanshu,001,2022-11-09_18h23.50.514,tutorial 7,2022.2.2,59.93069614550428,
0.4,1000.0,exp,0,9,9,7,87.71858350001276,88.71884680003859,88.71884680003859,88.71884680003859,space,0.3317547000478953,89.46876541993115,89.77942080004141,89.77942080004141,89.77942080004141,200,10,"[5.331308400025591, 5.636252099880949, 4.816584900021553, 4.498150700004771, 3.714333200128749, 3.1334275000263005, 5.547268700087443, 3.634588399901986, 2.314312499947846, 3.3819099999964237]","[5.331316500203684, 5.636258800048381, 4.816592999966815, 4.49815719993785, 3.7143385000526905, 3.1334343999624252, 5.547276700148359, 3.634594799950719, 2.3143195000011474, 3.3819162000436336]",89.77942080004141,sudhanshu,001,2022-11-09_18h23.50.514,tutorial 7,2022.2.2,59.93069614550428,
0.1,1000.0,exp,0,10,10,3,93.15214650006965,94.15233210008591,94.15233210008591,94.15233210008591,space,0.5081797998864204,94.78616601999383,95.08879030006938,95.08879030006938,95.08879030006938,"100
",11,"[5.331308400025591, 5.636252099880949, 4.816584900021553, 4.498150700004771, 3.714333200128749, 3.1334275000263005, 5.547268700087443, 3.634588399901986, 2.314312499947846, 3.3819099999964237, 4.231005700072274]","[5.331316500203684, 5.636258800048381, 4.816592999966815, 4.49815719993785, 3.7143385000526905, 3.1334343999624252, 5.547276700148359, 3.634594799950719, 2.3143195000011474, 3.3819162000436336, 4.231013500131667]",95.08879030006938,sudhanshu,001,2022-11-09_18h23.50.514,tutorial 7,2022.2.2,59.93069614550428,
0.4,400.0,unexp,0,11,11,1,99.319057200104,100.31941410014406,100.31941410014406,100.31941410014406,space,0.25922470004297793,101.00292772010434,101.30573430005461,101.30573430005461,101.30573430005461,100,12,"[5.331308400025591, 5.636252099880949, 4.816584900021553, 4.498150700004771, 3.714333200128749, 3.1334275000263005, 5.547268700087443, 3.634588399901986, 2.314312499947846, 3.3819099999964237, 4.231005700072274, 4.231807600008324]","[5.331316500203684, 5.636258800048381, 4.816592999966815, 4.49815719993785, 3.7143385000526905, 3.1334343999624252, 5.547276700148359, 3.634594799950719, 2.3143195000011474, 3.3819162000436336, 4.231013500131667, 4.231814600061625]",,sudhanshu,001,2022-11-09_18h23.50.514,tutorial 7,2022.2.2,59.93069614550428,
0.1,1000.0,exp,1,0,12,3,105.53605130012147,106.53643249999732,106.53643249999732,106.53643249999732,space,0.4430199000053108,107.10315301993396,107.40485380007885,107.40485380007885,107.40485380007885,50,13,"[5.331308400025591, 5.636252099880949, 4.816584900021553, 4.498150700004771, 3.714333200128749, 3.1334275000263005, 5.547268700087443, 3.634588399901986, 2.314312499947846, 3.3819099999964237, 4.231005700072274, 4.231807600008324, 7.167142800055444]","[5.331316500203684, 5.636258800048381, 4.816592999966815, 4.49815719993785, 3.7143385000526905, 3.1334343999624252, 5.547276700148359, 3.634594799950719, 2.3143195000011474, 3.3819162000436336, 4.231013500131667, 4.231814600061625, 7.167150299996138]",,sudhanshu,001,2022-11-09_18h23.50.514,tutorial 7,2022.2.2,59.93069614550428,
0.7,400.0,unexp,1,1,13,2,114.5698309999425,115.57004570006393,115.57004570006393,115.57004570006393,space,0.9521176000125706,117.25331662015523,117.55339070013724,117.55339070013724,117.55339070013724,100,14,"[5.331308400025591, 5.636252099880949, 4.816584900021553, 4.498150700004771, 3.714333200128749, 3.1334275000263005, 5.547268700087443, 3.634588399901986, 2.314312499947846, 3.3819099999964237, 4.231005700072274, 4.231807600008324, 7.167142800055444, 2.2020183000713587]","[5.331316500203684, 5.636258800048381, 4.816592999966815, 4.49815719993785, 3.7143385000526905, 3.1334343999624252, 5.547276700148359, 3.634594799950719, 2.3143195000011474, 3.3819162000436336, 4.231013500131667, 4.231814600061625, 7.167150299996138, 2.202028499916196]",,sudhanshu,001,2022-11-09_18h23.50.514,tutorial 7,2022.2.2,59.93069614550428,
0.1,1000.0,exp,1,2,14,9,119.75333600002341,120.75337780010886,120.75337780010886,120.75337780010886,space,1.0711339998524636,121.9536026199581,122.25563249993138,122.25563249993138,122.25563249993138,50,15,"[5.331308400025591, 5.636252099880949, 4.816584900021553, 4.498150700004771, 3.714333200128749, 3.1334275000263005, 5.547268700087443, 3.634588399901986, 2.314312499947846, 3.3819099999964237, 4.231005700072274, 4.231807600008324, 7.167142800055444, 2.2020183000713587, 3.4477963999379426]","[5.331316500203684, 5.636258800048381, 4.816592999966815, 4.49815719993785, 3.7143385000526905, 3.1334343999624252, 5.547276700148359, 3.634594799950719, 2.3143195000011474, 3.3819162000436336, 4.231013500131667, 4.231814600061625, 7.167150299996138, 2.202028499916196, 3.447803899878636]",122.25563249993138,sudhanshu,001,2022-11-09_18h23.50.514,tutorial 7,2022.2.2,59.93069614550428,
0.4,1000.0,exp,1,3,15,4,125.70378930005245,126.70378560014069,126.70378560014069,126.70378560014069,space,0.26715259975753725,127.38698402002919,127.68752539996058,127.68752539996058,127.68752539996058,100,16,"[5.331308400025591, 5.636252099880949, 4.816584900021553, 4.498150700004771, 3.714333200128749, 3.1334275000263005, 5.547268700087443, 3.634588399901986, 2.314312499947846, 3.3819099999964237, 4.231005700072274, 4.231807600008324, 7.167142800055444, 2.2020183000713587, 3.4477963999379426, 1.8484889999963343]","[5.331316500203684, 5.636258800048381, 4.816592999966815, 4.49815719993785, 3.7143385000526905, 3.1334343999624252, 5.547276700148359, 3.634594799950719, 2.3143195000011474, 3.3819162000436336, 4.231013500131667, 4.231814600061625, 7.167150299996138, 2.202028499916196, 3.447803899878636, 1.8484968000557274]",,sudhanshu,001,2022-11-09_18h23.50.514,tutorial 7,2022.2.2,59.93069614550428,
0.4,1000.0,exp,1,4,16,10,129.53721450013109,130.537224000087,130.537224000087,130.537224000087,space,0.2730996999889612,131.23741102011408,131.5395881999284,131.5395881999284,131.5395881999284,200,17,"[5.331308400025591, 5.636252099880949, 4.816584900021553, 4.498150700004771, 3.714333200128749, 3.1334275000263005, 5.547268700087443, 3.634588399901986, 2.314312499947846, 3.3819099999964237, 4.231005700072274, 4.231807600008324, 7.167142800055444, 2.2020183000713587, 3.4477963999379426, 1.8484889999963343, 2.0663741999305785]","[5.331316500203684, 5.636258800048381, 4.816592999966815, 4.49815719993785, 3.7143385000526905, 3.1334343999624252, 5.547276700148359, 3.634594799950719, 2.3143195000011474, 3.3819162000436336, 4.231013500131667, 4.231814600061625, 7.167150299996138, 2.202028499916196, 3.447803899878636, 1.8484968000557274, 2.066382799996063]",,sudhanshu,001,2022-11-09_18h23.50.514,tutorial 7,2022.2.2,59.93069614550428,
0.7,1000.0,exp,1,5,17,5,133.60391820012592,134.60425440012477,134.60425440012477,134.60425440012477,space,0.26837099995464087,135.60424642011057,135.90442120004445,135.90442120004445,135.90442120004445,300,18,"[5.331308400025591, 5.636252099880949, 4.816584900021553, 4.498150700004771, 3.714333200128749, 3.1334275000263005, 5.547268700087443, 3.634588399901986, 2.314312499947846, 3.3819099999964237, 4.231005700072274, 4.231807600008324, 7.167142800055444, 2.2020183000713587, 3.4477963999379426, 1.8484889999963343, 2.0663741999305785, 2.2625851000193506]","[5.331316500203684, 5.636258800048381, 4.816592999966815, 4.49815719993785, 3.7143385000526905, 3.1334343999624252, 5.547276700148359, 3.634594799950719, 2.3143195000011474, 3.3819162000436336, 4.231013500131667, 4.231814600061625, 7.167150299996138, 2.202028499916196, 3.447803899878636, 1.8484968000557274, 2.066382799996063, 2.262596599990502]",,sudhanshu,001,2022-11-09_18h23.50.514,tutorial 7,2022.2.2,59.93069614550428,
0.7,1000.0,exp,1,6,18,11,138.15985419997014,139.15442020003684,139.15442020003684,139.17089419998229,space,0.296883299946785,140.17153032009955,140.47343940008432,140.47343940008432,140.47343940008432,400,19,"[5.331308400025591, 5.636252099880949, 4.816584900021553, 4.498150700004771, 3.714333200128749, 3.1334275000263005, 5.547268700087443, 3.634588399901986, 2.314312499947846, 3.3819099999964237, 4.231005700072274, 4.231807600008324, 7.167142800055444, 2.2020183000713587, 3.4477963999379426, 1.8484889999963343, 2.0663741999305785, 2.2625851000193506, 2.149880199925974]","[5.331316500203684, 5.636258800048381, 4.816592999966815, 4.49815719993785, 3.7143385000526905, 3.1334343999624252, 5.547276700148359, 3.634594799950719, 2.3143195000011474, 3.3819162000436336, 4.231013500131667, 4.231814600061625, 7.167150299996138, 2.202028499916196, 3.447803899878636, 1.8484968000557274, 2.066382799996063, 2.262596599990502, 2.149888099869713]",,sudhanshu,001,2022-11-09_18h23.50.514,tutorial 7,2022.2.2,59.93069614550428,
0.4,400.0,unexp,1,7,19,1,142.62133080000058,143.62103469995782,143.62103469995782,143.62103469995782,space,0.3765432999935001,144.42121432002168,144.7212602000218,144.7212602000218,144.7212602000218,100,20,"[5.331308400025591, 5.636252099880949, 4.816584900021553, 4.498150700004771, 3.714333200128749, 3.1334275000263005, 5.547268700087443, 3.634588399901986, 2.314312499947846, 3.3819099999964237, 4.231005700072274, 4.231807600008324, 7.167142800055444, 2.2020183000713587, 3.4477963999379426, 1.8484889999963343, 2.0663741999305785, 2.2625851000193506, 2.149880199925974, 2.8145701999310404]","[5.331316500203684, 5.636258800048381, 4.816592999966815, 4.49815719993785, 3.7143385000526905, 3.1334343999624252, 5.547276700148359, 3.634594799950719, 2.3143195000011474, 3.3819162000436336, 4.231013500131667, 4.231814600061625, 7.167150299996138, 2.202028499916196, 3.447803899878636, 1.8484968000557274, 2.066382799996063, 2.262596599990502, 2.149888099869713, 2.8145759999752045]",,sudhanshu,001,2022-11-09_18h23.50.514,tutorial 7,2022.2.2,59.93069614550428,
0.4,1000.0,exp,1,8,20,7,147.53798020002432,148.5380897000432,148.5380897000432,148.5380897000432,space,0.3273610998876393,149.28831931997556,149.58867680002004,149.58867680002004,149.58867680002004,100,21,"[5.331308400025591, 5.636252099880949, 4.816584900021553, 4.498150700004771, 3.714333200128749, 3.1334275000263005, 5.547268700087443, 3.634588399901986, 2.314312499947846, 3.3819099999964237, 4.231005700072274, 4.231807600008324, 7.167142800055444, 2.2020183000713587, 3.4477963999379426, 1.8484889999963343, 2.0663741999305785, 2.2625851000193506, 2.149880199925974, 2.8145701999310404, 2.86525829997845]","[5.331316500203684, 5.636258800048381, 4.816592999966815, 4.49815719993785, 3.7143385000526905, 3.1334343999624252, 5.547276700148359, 3.634594799950719, 2.3143195000011474, 3.3819162000436336, 4.231013500131667, 4.231814600061625, 7.167150299996138, 2.202028499916196, 3.447803899878636, 1.8484968000557274, 2.066382799996063, 2.262596599990502, 2.149888099869713, 2.8145759999752045, 2.86526450002566]",149.58867680002004,sudhanshu,001,2022-11-09_18h23.50.514,tutorial 7,2022.2.2,59.93069614550428,
0.1,400.0,unexp,1,9,21,0,152.45472249994054,153.4548707001377,153.4548707001377,153.4548707001377,space,0.3240956999361515,153.9051339200465,154.20525970007293,154.20525970007293,154.20525970007293,100,22,"[5.331308400025591, 5.636252099880949, 4.816584900021553, 4.498150700004771, 3.714333200128749, 3.1334275000263005, 5.547268700087443, 3.634588399901986, 2.314312499947846, 3.3819099999964237, 4.231005700072274, 4.231807600008324, 7.167142800055444, 2.2020183000713587, 3.4477963999379426, 1.8484889999963343, 2.0663741999305785, 2.2625851000193506, 2.149880199925974, 2.8145701999310404, 2.86525829997845, 2.6998880999162793]","[5.331316500203684, 5.636258800048381, 4.816592999966815, 4.49815719993785, 3.7143385000526905, 3.1334343999624252, 5.547276700148359, 3.634594799950719, 2.3143195000011474, 3.3819162000436336, 4.231013500131667, 4.231814600061625, 7.167150299996138, 2.202028499916196, 3.447803899878636, 1.8484968000557274, 2.066382799996063, 2.262596599990502, 2.149888099869713, 2.8145759999752045, 2.86526450002566, 2.6998938999604434]",,sudhanshu,001,2022-11-09_18h23.50.514,tutorial 7,2022.2.2,59.93069614550428,
0.7,1000.0,exp,1,10,22,8,156.9051733999513,157.90527840005234,157.90527840005234,157.90527840005234,space,0.30561399972066283,158.9386390201049,159.23926350008696,159.23926350008696,159.23926350008696,100,23,"[5.331308400025591, 5.636252099880949, 4.816584900021553, 4.498150700004771, 3.714333200128749, 3.1334275000263005, 5.547268700087443, 3.634588399901986, 2.314312499947846, 3.3819099999964237, 4.231005700072274, 4.231807600008324, 7.167142800055444, 2.2020183000713587, 3.4477963999379426, 1.8484889999963343, 2.0663741999305785, 2.2625851000193506, 2.149880199925974, 2.8145701999310404, 2.86525829997845, 2.6998880999162793, 3.5166503998916596]","[5.331316500203684, 5.636258800048381, 4.816592999966815, 4.49815719993785, 3.7143385000526905, 3.1334343999624252, 5.547276700148359, 3.634594799950719, 2.3143195000011474, 3.3819162000436336, 4.231013500131667, 4.231814600061625, 7.167150299996138, 2.202028499916196, 3.447803899878636, 1.8484968000557274, 2.066382799996063, 2.262596599990502, 2.149888099869713, 2.8145759999752045, 2.86526450002566, 2.6998938999604434, 3.5166579999495298]",159.23926350008696,sudhanshu,001,2022-11-09_18h23.50.514,tutorial 7,2022.2.2,59.93069614550428,
0.1,1000.0,exp,1,11,23,6,162.75520509993657,163.75584909995086,163.75584909995086,163.75584909995086,space,0.4023442999459803,164.28890612001996,164.59267799998634,164.59267799998634,164.59267799998634,0,24,"[5.331308400025591, 5.636252099880949, 4.816584900021553, 4.498150700004771, 3.714333200128749, 3.1334275000263005, 5.547268700087443, 3.634588399901986, 2.314312499947846, 3.3819099999964237, 4.231005700072274, 4.231807600008324, 7.167142800055444, 2.2020183000713587, 3.4477963999379426, 1.8484889999963343, 2.0663741999305785, 2.2625851000193506, 2.149880199925974, 2.8145701999310404, 2.86525829997845, 2.6998880999162793, 3.5166503998916596, 2.781704100081697]","[5.331316500203684, 5.636258800048381, 4.816592999966815, 4.49815719993785, 3.7143385000526905, 3.1334343999624252, 5.547276700148359, 3.634594799950719, 2.3143195000011474, 3.3819162000436336, 4.231013500131667, 4.231814600061625, 7.167150299996138, 2.202028499916196, 3.447803899878636, 1.8484968000557274, 2.066382799996063, 2.262596599990502, 2.149888099869713, 2.8145759999752045, 2.86526450002566, 2.6998938999604434, 3.5166579999495298, 2.78171050013043]",,sudhanshu,001,2022-11-09_18h23.50.514,tutorial 7,2022.2.2,59.93069614550428,
0.7,1000.0,exp,2,0,24,5,167.37210660008714,168.37234540004283,168.37234540004283,168.37234540004283,space,0.38922659982927144,169.48927462010178,169.7905634001363,169.7905634001363,169.7905634001363,100,25,"[5.331308400025591, 5.636252099880949, 4.816584900021553, 4.498150700004771, 3.714333200128749, 3.1334275000263005, 5.547268700087443, 3.634588399901986, 2.314312499947846, 3.3819099999964237, 4.231005700072274, 4.231807600008324, 7.167142800055444, 2.2020183000713587, 3.4477963999379426, 1.8484889999963343, 2.0663741999305785, 2.2625851000193506, 2.149880199925974, 2.8145701999310404, 2.86525829997845, 2.6998880999162793, 3.5166503998916596, 2.781704100081697, 2.34855469991453]","[5.331316500203684, 5.636258800048381, 4.816592999966815, 4.49815719993785, 3.7143385000526905, 3.1334343999624252, 5.547276700148359, 3.634594799950719, 2.3143195000011474, 3.3819162000436336, 4.231013500131667, 4.231814600061625, 7.167150299996138, 2.202028499916196, 3.447803899878636, 1.8484968000557274, 2.066382799996063, 2.262596599990502, 2.149888099869713, 2.8145759999752045, 2.86526450002566, 2.6998938999604434, 3.5166579999495298, 2.78171050013043, 2.348562599858269]",,sudhanshu,001,2022-11-09_18h23.50.514,tutorial 7,2022.2.2,59.93069614550428,
0.7,1000.0,exp,2,1,25,8,172.1392181001138,173.139285299927,173.139285299927,173.139285299927,space,0.31234649987891316,174.172895720019,174.47569030011073,174.47569030011073,174.47569030011073,100,26,"[5.331308400025591, 5.636252099880949, 4.816584900021553, 4.498150700004771, 3.714333200128749, 3.1334275000263005, 5.547268700087443, 3.634588399901986, 2.314312499947846, 3.3819099999964237, 4.231005700072274, 4.231807600008324, 7.167142800055444, 2.2020183000713587, 3.4477963999379426, 1.8484889999963343, 2.0663741999305785, 2.2625851000193506, 2.149880199925974, 2.8145701999310404, 2.86525829997845, 2.6998880999162793, 3.5166503998916596, 2.781704100081697, 2.34855469991453, 2.375644699903205]","[5.331316500203684, 5.636258800048381, 4.816592999966815, 4.49815719993785, 3.7143385000526905, 3.1334343999624252, 5.547276700148359, 3.634594799950719, 2.3143195000011474, 3.3819162000436336, 4.231013500131667, 4.231814600061625, 7.167150299996138, 2.202028499916196, 3.447803899878636, 1.8484968000557274, 2.066382799996063, 2.262596599990502, 2.149888099869713, 2.8145759999752045, 2.86526450002566, 2.6998938999604434, 3.5166579999495298, 2.78171050013043, 2.348562599858269, 2.375654599862173]",,sudhanshu,001,2022-11-09_18h23.50.514,tutorial 7,2022.2.2,59.93069614550428,
0.7,400.0,unexp,2,2,26,2,176.8437984001357,177.83946879999712,177.83946879999712,177.8558923001401,space,0.39197400002740324,178.95630622005555,179.25639410014264,179.25639410014264,179.25639410014264,400,27,"[5.331308400025591, 5.636252099880949, 4.816584900021553, 4.498150700004771, 3.714333200128749, 3.1334275000263005, 5.547268700087443, 3.634588399901986, 2.314312499947846, 3.3819099999964237, 4.231005700072274, 4.231807600008324, 7.167142800055444, 2.2020183000713587, 3.4477963999379426, 1.8484889999963343, 2.0663741999305785, 2.2625851000193506, 2.149880199925974, 2.8145701999310404, 2.86525829997845, 2.6998880999162793, 3.5166503998916596, 2.781704100081697, 2.34855469991453, 2.375644699903205, 2.5133591000922024]","[5.331316500203684, 5.636258800048381, 4.816592999966815, 4.49815719993785, 3.7143385000526905, 3.1334343999624252, 5.547276700148359, 3.634594799950719, 2.3143195000011474, 3.3819162000436336, 4.231013500131667, 4.231814600061625, 7.167150299996138, 2.202028499916196, 3.447803899878636, 1.8484968000557274, 2.066382799996063, 2.262596599990502, 2.149888099869713, 2.8145759999752045, 2.86526450002566, 2.6998938999604434, 3.5166579999495298, 2.78171050013043, 2.348562599858269, 2.375654599862173, 2.513364600017667]",,sudhanshu,001,2022-11-09_18h23.50.514,tutorial 7,2022.2.2,59.93069614550428,
0.7,1000.0,exp,2,3,27,11,181.77303529996425,182.77313890005462,182.77313890005462,182.77313890005462,space,0.4686570998746902,183.97298981996718,184.2749107000418,184.2749107000418,184.2749107000418,100,28,"[5.331308400025591, 5.636252099880949, 4.816584900021553, 4.498150700004771, 3.714333200128749, 3.1334275000263005, 5.547268700087443, 3.634588399901986, 2.314312499947846, 3.3819099999964237, 4.231005700072274, 4.231807600008324, 7.167142800055444, 2.2020183000713587, 3.4477963999379426, 1.8484889999963343, 2.0663741999305785, 2.2625851000193506, 2.149880199925974, 2.8145701999310404, 2.86525829997845, 2.6998880999162793, 3.5166503998916596, 2.781704100081697, 2.34855469991453, 2.375644699903205, 2.5133591000922024, 3.2644241999369115]","[5.331316500203684, 5.636258800048381, 4.816592999966815, 4.49815719993785, 3.7143385000526905, 3.1334343999624252, 5.547276700148359, 3.634594799950719, 2.3143195000011474, 3.3819162000436336, 4.231013500131667, 4.231814600061625, 7.167150299996138, 2.202028499916196, 3.447803899878636, 1.8484968000557274, 2.066382799996063, 2.262596599990502, 2.149888099869713, 2.8145759999752045, 2.86526450002566, 2.6998938999604434, 3.5166579999495298, 2.78171050013043, 2.348562599858269, 2.375654599862173, 2.513364600017667, 3.264429699862376]",,sudhanshu,001,2022-11-09_18h23.50.514,tutorial 7,2022.2.2,59.93069614550428,
0.1,1000.0,exp,2,4,28,9,187.53979960014112,188.52325930004008,188.52325930004008,188.53984230011702,space,0.5178737000096589,189.15681402015034,189.45683500007726,189.45683500007726,189.45683500007726,100,29,"[5.331308400025591, 5.636252099880949, 4.816584900021553, 4.498150700004771, 3.714333200128749, 3.1334275000263005, 5.547268700087443, 3.634588399901986, 2.314312499947846, 3.3819099999964237, 4.231005700072274, 4.231807600008324, 7.167142800055444, 2.2020183000713587, 3.4477963999379426, 1.8484889999963343, 2.0663741999305785, 2.2625851000193506, 2.149880199925974, 2.8145701999310404, 2.86525829997845, 2.6998880999162793, 3.5166503998916596, 2.781704100081697, 2.34855469991453, 2.375644699903205, 2.5133591000922024, 3.2644241999369115, 2.6987117000389844]","[5.331316500203684, 5.636258800048381, 4.816592999966815, 4.49815719993785, 3.7143385000526905, 3.1334343999624252, 5.547276700148359, 3.634594799950719, 2.3143195000011474, 3.3819162000436336, 4.231013500131667, 4.231814600061625, 7.167150299996138, 2.202028499916196, 3.447803899878636, 1.8484968000557274, 2.066382799996063, 2.262596599990502, 2.149888099869713, 2.8145759999752045, 2.86526450002566, 2.6998938999604434, 3.5166579999495298, 2.78171050013043, 2.348562599858269, 2.375654599862173, 2.513364600017667, 3.264429699862376, 2.6987193999812007]",,sudhanshu,001,2022-11-09_18h23.50.514,tutorial 7,2022.2.2,59.93069614550428,
0.4,1000.0,exp,2,5,29,10,192.15675240010023,193.1567579000257,193.1567579000257,193.1567579000257,space,0.4738604996819049,194.05700542011763,194.36606999998912,194.36606999998912,194.36606999998912,300,30,"[5.331308400025591, 5.636252099880949, 4.816584900021553, 4.498150700004771, 3.714333200128749, 3.1334275000263005, 5.547268700087443, 3.634588399901986, 2.314312499947846, 3.3819099999964237, 4.231005700072274, 4.231807600008324, 7.167142800055444, 2.2020183000713587, 3.4477963999379426, 1.8484889999963343, 2.0663741999305785, 2.2625851000193506, 2.149880199925974, 2.8145701999310404, 2.86525829997845, 2.6998880999162793, 3.5166503998916596, 2.781704100081697, 2.34855469991453, 2.375644699903205, 2.5133591000922024, 3.2644241999369115, 2.6987117000389844, 3.0456270000431687]","[5.331316500203684, 5.636258800048381, 4.816592999966815, 4.49815719993785, 3.7143385000526905, 3.1334343999624252, 5.547276700148359, 3.634594799950719, 2.3143195000011474, 3.3819162000436336, 4.231013500131667, 4.231814600061625, 7.167150299996138, 2.202028499916196, 3.447803899878636, 1.8484968000557274, 2.066382799996063, 2.262596599990502, 2.149888099869713, 2.8145759999752045, 2.86526450002566, 2.6998938999604434, 3.5166579999495298, 2.78171050013043, 2.348562599858269, 2.375654599862173, 2.513364600017667, 3.264429699862376, 2.6987193999812007, 3.045632000081241]",194.36606999998912,sudhanshu,001,2022-11-09_18h23.50.514,tutorial 7,2022.2.2,59.93069614550428,
0.1,400.0,unexp,2,6,30,0,197.4068790001329,198.40724229998887,198.40724229998887,198.40724229998887,space,1.0008940999396145,199.54035581999923,199.84059419995174,199.84059419995174,199.84059419995174,200,31,"[5.331308400025591, 5.636252099880949, 4.816584900021553, 4.498150700004771, 3.714333200128749, 3.1334275000263005, 5.547268700087443, 3.634588399901986, 2.314312499947846, 3.3819099999964237, 4.231005700072274, 4.231807600008324, 7.167142800055444, 2.2020183000713587, 3.4477963999379426, 1.8484889999963343, 2.0663741999305785, 2.2625851000193506, 2.149880199925974, 2.8145701999310404, 2.86525829997845, 2.6998880999162793, 3.5166503998916596, 2.781704100081697, 2.34855469991453, 2.375644699903205, 2.5133591000922024, 3.2644241999369115, 2.6987117000389844, 3.0456270000431687, 3.853853100212291]","[5.331316500203684, 5.636258800048381, 4.816592999966815, 4.49815719993785, 3.7143385000526905, 3.1334343999624252, 5.547276700148359, 3.634594799950719, 2.3143195000011474, 3.3819162000436336, 4.231013500131667, 4.231814600061625, 7.167150299996138, 2.202028499916196, 3.447803899878636, 1.8484968000557274, 2.066382799996063, 2.262596599990502, 2.149888099869713, 2.8145759999752045, 2.86526450002566, 2.6998938999604434, 3.5166579999495298, 2.78171050013043, 2.348562599858269, 2.375654599862173, 2.513364600017667, 3.264429699862376, 2.6987193999812007, 3.045632000081241, 3.853863700060174]",,sudhanshu,001,2022-11-09_18h23.50.514,tutorial 7,2022.2.2,59.93069614550428,
0.4,1000.0,exp,2,7,31,4,203.6905032999348,204.69068010011688,204.69068010011688,204.69068010011688,space,0.4732675999403,205.59081112013664,205.89108279999346,205.89108279999346,205.89108279999346,300,32,"[5.331308400025591, 5.636252099880949, 4.816584900021553, 4.498150700004771, 3.714333200128749, 3.1334275000263005, 5.547268700087443, 3.634588399901986, 2.314312499947846, 3.3819099999964237, 4.231005700072274, 4.231807600008324, 7.167142800055444, 2.2020183000713587, 3.4477963999379426, 1.8484889999963343, 2.0663741999305785, 2.2625851000193506, 2.149880199925974, 2.8145701999310404, 2.86525829997845, 2.6998880999162793, 3.5166503998916596, 2.781704100081697, 2.34855469991453, 2.375644699903205, 2.5133591000922024, 3.2644241999369115, 2.6987117000389844, 3.0456270000431687, 3.853853100212291, 1.6984616999980062]","[5.331316500203684, 5.636258800048381, 4.816592999966815, 4.49815719993785, 3.7143385000526905, 3.1334343999624252, 5.547276700148359, 3.634594799950719, 2.3143195000011474, 3.3819162000436336, 4.231013500131667, 4.231814600061625, 7.167150299996138, 2.202028499916196, 3.447803899878636, 1.8484968000557274, 2.066382799996063, 2.262596599990502, 2.149888099869713, 2.8145759999752045, 2.86526450002566, 2.6998938999604434, 3.5166579999495298, 2.78171050013043, 2.348562599858269, 2.375654599862173, 2.513364600017667, 3.264429699862376, 2.6987193999812007, 3.045632000081241, 3.853863700060174, 1.698470100061968]",,sudhanshu,001,2022-11-09_18h23.50.514,tutorial 7,2022.2.2,59.93069614550428,
0.4,1000.0,exp,2,8,32,7,207.5908342001494,208.59074810007587,208.59074810007587,208.59074810007587,space,0.2985644999425858,209.3077953199623,209.60984340007417,209.60984340007417,209.60984340007417,200,33,"[5.331308400025591, 5.636252099880949, 4.816584900021553, 4.498150700004771, 3.714333200128749, 3.1334275000263005, 5.547268700087443, 3.634588399901986, 2.314312499947846, 3.3819099999964237, 4.231005700072274, 4.231807600008324, 7.167142800055444, 2.2020183000713587, 3.4477963999379426, 1.8484889999963343, 2.0663741999305785, 2.2625851000193506, 2.149880199925974, 2.8145701999310404, 2.86525829997845, 2.6998880999162793, 3.5166503998916596, 2.781704100081697, 2.34855469991453, 2.375644699903205, 2.5133591000922024, 3.2644241999369115, 2.6987117000389844, 3.0456270000431687, 3.853853100212291, 1.6984616999980062, 1.5314533999189734]","[5.331316500203684, 5.636258800048381, 4.816592999966815, 4.49815719993785, 3.7143385000526905, 3.1334343999624252, 5.547276700148359, 3.634594799950719, 2.3143195000011474, 3.3819162000436336, 4.231013500131667, 4.231814600061625, 7.167150299996138, 2.202028499916196, 3.447803899878636, 1.8484968000557274, 2.066382799996063, 2.262596599990502, 2.149888099869713, 2.8145759999752045, 2.86526450002566, 2.6998938999604434, 3.5166579999495298, 2.78171050013043, 2.348562599858269, 2.375654599862173, 2.513364600017667, 3.264429699862376, 2.6987193999812007, 3.045632000081241, 3.853863700060174, 1.698470100061968, 1.5314609000924975]",,sudhanshu,001,2022-11-09_18h23.50.514,tutorial 7,2022.2.2,59.93069614550428,
0.1,1000.0,exp,2,9,33,3,211.14079049997963,212.14085340010934,212.14085340010934,212.14085340010934,space,0.5493411999195814,212.8075850201072,213.1101691001095,213.1101691001095,213.1101691001095,100 ,34,"[5.331308400025591, 5.636252099880949, 4.816584900021553, 4.498150700004771, 3.714333200128749, 3.1334275000263005, 5.547268700087443, 3.634588399901986, 2.314312499947846, 3.3819099999964237, 4.231005700072274, 4.231807600008324, 7.167142800055444, 2.2020183000713587, 3.4477963999379426, 1.8484889999963343, 2.0663741999305785, 2.2625851000193506, 2.149880199925974, 2.8145701999310404, 2.86525829997845, 2.6998880999162793, 3.5166503998916596, 2.781704100081697, 2.34855469991453, 2.375644699903205, 2.5133591000922024, 3.2644241999369115, 2.6987117000389844, 3.0456270000431687, 3.853853100212291, 1.6984616999980062, 1.5314533999189734, 3.2644923999905586]","[5.331316500203684, 5.636258800048381, 4.816592999966815, 4.49815719993785, 3.7143385000526905, 3.1334343999624252, 5.547276700148359, 3.634594799950719, 2.3143195000011474, 3.3819162000436336, 4.231013500131667, 4.231814600061625, 7.167150299996138, 2.202028499916196, 3.447803899878636, 1.8484968000557274, 2.066382799996063, 2.262596599990502, 2.149888099869713, 2.8145759999752045, 2.86526450002566, 2.6998938999604434, 3.5166579999495298, 2.78171050013043, 2.348562599858269, 2.375654599862173, 2.513364600017667, 3.264429699862376, 2.6987193999812007, 3.045632000081241, 3.853863700060174, 1.698470100061968, 1.5314609000924975, 3.2644997001625597]",213.1101691001095,sudhanshu,001,2022-11-09_18h23.50.514,tutorial 7,2022.2.2,59.93069614550428,
0.4,400.0,unexp,2,10,34,1,216.3746039001271,217.3745615000371,217.3745615000371,217.3745615000371,space,0.7309760998468846,218.5247203200357,218.8247273999732,218.8247273999732,218.8247273999732,200,35,"[5.331308400025591, 5.636252099880949, 4.816584900021553, 4.498150700004771, 3.714333200128749, 3.1334275000263005, 5.547268700087443, 3.634588399901986, 2.314312499947846, 3.3819099999964237, 4.231005700072274, 4.231807600008324, 7.167142800055444, 2.2020183000713587, 3.4477963999379426, 1.8484889999963343, 2.0663741999305785, 2.2625851000193506, 2.149880199925974, 2.8145701999310404, 2.86525829997845, 2.6998880999162793, 3.5166503998916596, 2.781704100081697, 2.34855469991453, 2.375644699903205, 2.5133591000922024, 3.2644241999369115, 2.6987117000389844, 3.0456270000431687, 3.853853100212291, 1.6984616999980062, 1.5314533999189734, 3.2644923999905586, 2.098079700022936]","[5.331316500203684, 5.636258800048381, 4.816592999966815, 4.49815719993785, 3.7143385000526905, 3.1334343999624252, 5.547276700148359, 3.634594799950719, 2.3143195000011474, 3.3819162000436336, 4.231013500131667, 4.231814600061625, 7.167150299996138, 2.202028499916196, 3.447803899878636, 1.8484968000557274, 2.066382799996063, 2.262596599990502, 2.149888099869713, 2.8145759999752045, 2.86526450002566, 2.6998938999604434, 3.5166579999495298, 2.78171050013043, 2.348562599858269, 2.375654599862173, 2.513364600017667, 3.264429699862376, 2.6987193999812007, 3.045632000081241, 3.853863700060174, 1.698470100061968, 1.5314609000924975, 3.2644997001625597, 2.0980883999727666]",,sudhanshu,001,2022-11-09_18h23.50.514,tutorial 7,2022.2.2,59.93069614550428,
0.1,1000.0,exp,2,11,35,6,220.92462639999576,221.92455619992688,221.92455619992688,221.92455619992688,space,0.3257271000184119,222.3752644199645,222.6822772999294,222.6822772999294,222.6822772999294,100,36,"[5.331308400025591, 5.636252099880949, 4.816584900021553, 4.498150700004771, 3.714333200128749, 3.1334275000263005, 5.547268700087443, 3.634588399901986, 2.314312499947846, 3.3819099999964237, 4.231005700072274, 4.231807600008324, 7.167142800055444, 2.2020183000713587, 3.4477963999379426, 1.8484889999963343, 2.0663741999305785, 2.2625851000193506, 2.149880199925974, 2.8145701999310404, 2.86525829997845, 2.6998880999162793, 3.5166503998916596, 2.781704100081697, 2.34855469991453, 2.375644699903205, 2.5133591000922024, 3.2644241999369115, 2.6987117000389844, 3.0456270000431687, 3.853853100212291, 1.6984616999980062, 1.5314533999189734, 3.2644923999905586, 2.098079700022936, 2.7434880000073463]","[5.331316500203684, 5.636258800048381, 4.816592999966815, 4.49815719993785, 3.7143385000526905, 3.1334343999624252, 5.547276700148359, 3.634594799950719, 2.3143195000011474, 3.3819162000436336, 4.231013500131667, 4.231814600061625, 7.167150299996138, 2.202028499916196, 3.447803899878636, 1.8484968000557274, 2.066382799996063, 2.262596599990502, 2.149888099869713, 2.8145759999752045, 2.86526450002566, 2.6998938999604434, 3.5166579999495298, 2.78171050013043, 2.348562599858269, 2.375654599862173, 2.513364600017667, 3.264429699862376, 2.6987193999812007, 3.045632000081241, 3.853863700060174, 1.698470100061968, 1.5314609000924975, 3.2644997001625597, 2.0980883999727666, 2.743494699941948]",,sudhanshu,001,2022-11-09_18h23.50.514,tutorial 7,2022.2.2,59.93069614550428,
0.1,1000.0,exp,3,0,36,9,225.4247854000423,226.42496929992922,226.42496929992922,226.42496929992922,space,0.28723499993793666,226.84176842009182,227.15440160012804,227.15440160012804,227.15440160012804,100,37,"[5.331308400025591, 5.636252099880949, 4.816584900021553, 4.498150700004771, 3.714333200128749, 3.1334275000263005, 5.547268700087443, 3.634588399901986, 2.314312499947846, 3.3819099999964237, 4.231005700072274, 4.231807600008324, 7.167142800055444, 2.2020183000713587, 3.4477963999379426, 1.8484889999963343, 2.0663741999305785, 2.2625851000193506, 2.149880199925974, 2.8145701999310404, 2.86525829997845, 2.6998880999162793, 3.5166503998916596, 2.781704100081697, 2.34855469991453, 2.375644699903205, 2.5133591000922024, 3.2644241999369115, 2.6987117000389844, 3.0456270000431687, 3.853853100212291, 1.6984616999980062, 1.5314533999189734, 3.2644923999905586, 2.098079700022936, 2.7434880000073463, 1.8851113999262452]","[5.331316500203684, 5.636258800048381, 4.816592999966815, 4.49815719993785, 3.7143385000526905, 3.1334343999624252, 5.547276700148359, 3.634594799950719, 2.3143195000011474, 3.3819162000436336, 4.231013500131667, 4.231814600061625, 7.167150299996138, 2.202028499916196, 3.447803899878636, 1.8484968000557274, 2.066382799996063, 2.262596599990502, 2.149888099869713, 2.8145759999752045, 2.86526450002566, 2.6998938999604434, 3.5166579999495298, 2.78171050013043, 2.348562599858269, 2.375654599862173, 2.513364600017667, 3.264429699862376, 2.6987193999812007, 3.045632000081241, 3.853863700060174, 1.698470100061968, 1.5314609000924975, 3.2644997001625597, 2.0980883999727666, 2.743494699941948, 1.8851189999841154]",,sudhanshu,001,2022-11-09_18h23.50.514,tutorial 7,2022.2.2,59.93069614550428,
0.1,1000.0,exp,3,1,37,3,229.02519720001146,230.02505769999698,230.02505769999698,230.02505769999698,space,0.2846682998351753,230.44158002014737,230.74165310012177,230.74165310012177,230.74165310012177,100,38,"[5.331308400025591, 5.636252099880949, 4.816584900021553, 4.498150700004771, 3.714333200128749, 3.1334275000263005, 5.547268700087443, 3.634588399901986, 2.314312499947846, 3.3819099999964237, 4.231005700072274, 4.231807600008324, 7.167142800055444, 2.2020183000713587, 3.4477963999379426, 1.8484889999963343, 2.0663741999305785, 2.2625851000193506, 2.149880199925974, 2.8145701999310404, 2.86525829997845, 2.6998880999162793, 3.5166503998916596, 2.781704100081697, 2.34855469991453, 2.375644699903205, 2.5133591000922024, 3.2644241999369115, 2.6987117000389844, 3.0456270000431687, 3.853853100212291, 1.6984616999980062, 1.5314533999189734, 3.2644923999905586, 2.098079700022936, 2.7434880000073463, 1.8851113999262452, 1.5816571998875588]","[5.331316500203684, 5.636258800048381, 4.816592999966815, 4.49815719993785, 3.7143385000526905, 3.1334343999624252, 5.547276700148359, 3.634594799950719, 2.3143195000011474, 3.3819162000436336, 4.231013500131667, 4.231814600061625, 7.167150299996138, 2.202028499916196, 3.447803899878636, 1.8484968000557274, 2.066382799996063, 2.262596599990502, 2.149888099869713, 2.8145759999752045, 2.86526450002566, 2.6998938999604434, 3.5166579999495298, 2.78171050013043, 2.348562599858269, 2.375654599862173, 2.513364600017667, 3.264429699862376, 2.6987193999812007, 3.045632000081241, 3.853863700060174, 1.698470100061968, 1.5314609000924975, 3.2644997001625597, 2.0980883999727666, 2.743494699941948, 1.8851189999841154, 1.5816651000641286]",,sudhanshu,001,2022-11-09_18h23.50.514,tutorial 7,2022.2.2,59.93069614550428,
0.4,1000.0,exp,3,2,38,7,232.32508280011825,233.3251018000301,233.3251018000301,233.3251018000301,space,0.3177083998452872,234.05862451998982,234.37640530010685,234.37640530010685,234.37640530010685,100,39,"[5.331308400025591, 5.636252099880949, 4.816584900021553, 4.498150700004771, 3.714333200128749, 3.1334275000263005, 5.547268700087443, 3.634588399901986, 2.314312499947846, 3.3819099999964237, 4.231005700072274, 4.231807600008324, 7.167142800055444, 2.2020183000713587, 3.4477963999379426, 1.8484889999963343, 2.0663741999305785, 2.2625851000193506, 2.149880199925974, 2.8145701999310404, 2.86525829997845, 2.6998880999162793, 3.5166503998916596, 2.781704100081697, 2.34855469991453, 2.375644699903205, 2.5133591000922024, 3.2644241999369115, 2.6987117000389844, 3.0456270000431687, 3.853853100212291, 1.6984616999980062, 1.5314533999189734, 3.2644923999905586, 2.098079700022936, 2.7434880000073463, 1.8851113999262452, 1.5816571998875588, 2.4682905001100153]","[5.331316500203684, 5.636258800048381, 4.816592999966815, 4.49815719993785, 3.7143385000526905, 3.1334343999624252, 5.547276700148359, 3.634594799950719, 2.3143195000011474, 3.3819162000436336, 4.231013500131667, 4.231814600061625, 7.167150299996138, 2.202028499916196, 3.447803899878636, 1.8484968000557274, 2.066382799996063, 2.262596599990502, 2.149888099869713, 2.8145759999752045, 2.86526450002566, 2.6998938999604434, 3.5166579999495298, 2.78171050013043, 2.348562599858269, 2.375654599862173, 2.513364600017667, 3.264429699862376, 2.6987193999812007, 3.045632000081241, 3.853863700060174, 1.698470100061968, 1.5314609000924975, 3.2644997001625597, 2.0980883999727666, 2.743494699941948, 1.8851189999841154, 1.5816651000641286, 2.4682980000507087]",234.37640530010685,sudhanshu,001,2022-11-09_18h23.50.514,tutorial 7,2022.2.2,59.93069614550428,
0.7,1000.0,exp,3,3,39,8,236.8253761001397,237.82546450011432,237.82546450011432,237.82546450011432,space,0.35177830001339316,238.90872602004092,239.22198919998482,239.22198919998482,239.22198919998482,400,40,"[5.331308400025591, 5.636252099880949, 4.816584900021553, 4.498150700004771, 3.714333200128749, 3.1334275000263005, 5.547268700087443, 3.634588399901986, 2.314312499947846, 3.3819099999964237, 4.231005700072274, 4.231807600008324, 7.167142800055444, 2.2020183000713587, 3.4477963999379426, 1.8484889999963343, 2.0663741999305785, 2.2625851000193506, 2.149880199925974, 2.8145701999310404, 2.86525829997845, 2.6998880999162793, 3.5166503998916596, 2.781704100081697, 2.34855469991453, 2.375644699903205, 2.5133591000922024, 3.2644241999369115, 2.6987117000389844, 3.0456270000431687, 3.853853100212291, 1.6984616999980062, 1.5314533999189734, 3.2644923999905586, 2.098079700022936, 2.7434880000073463, 1.8851113999262452, 1.5816571998875588, 2.4682905001100153, 2.551483500050381]","[5.331316500203684, 5.636258800048381, 4.816592999966815, 4.49815719993785, 3.7143385000526905, 3.1334343999624252, 5.547276700148359, 3.634594799950719, 2.3143195000011474, 3.3819162000436336, 4.231013500131667, 4.231814600061625, 7.167150299996138, 2.202028499916196, 3.447803899878636, 1.8484968000557274, 2.066382799996063, 2.262596599990502, 2.149888099869713, 2.8145759999752045, 2.86526450002566, 2.6998938999604434, 3.5166579999495298, 2.78171050013043, 2.348562599858269, 2.375654599862173, 2.513364600017667, 3.264429699862376, 2.6987193999812007, 3.045632000081241, 3.853863700060174, 1.698470100061968, 1.5314609000924975, 3.2644997001625597, 2.0980883999727666, 2.743494699941948, 1.8851189999841154, 1.5816651000641286, 2.4682980000507087, 2.551493299892172]",,sudhanshu,001,2022-11-09_18h23.50.514,tutorial 7,2022.2.2,59.93069614550428,
0.4,1000.0,exp,3,4,40,4,241.775524900062,242.77582249999978,242.77582249999978,242.77582249999978,space,0.2694020997732878,243.4757871199632,243.7760924999602,243.7760924999602,243.7760924999602,100,41,"[5.331308400025591, 5.636252099880949, 4.816584900021553, 4.498150700004771, 3.714333200128749, 3.1334275000263005, 5.547268700087443, 3.634588399901986, 2.314312499947846, 3.3819099999964237, 4.231005700072274, 4.231807600008324, 7.167142800055444, 2.2020183000713587, 3.4477963999379426, 1.8484889999963343, 2.0663741999305785, 2.2625851000193506, 2.149880199925974, 2.8145701999310404, 2.86525829997845, 2.6998880999162793, 3.5166503998916596, 2.781704100081697, 2.34855469991453, 2.375644699903205, 2.5133591000922024, 3.2644241999369115, 2.6987117000389844, 3.0456270000431687, 3.853853100212291, 1.6984616999980062, 1.5314533999189734, 3.2644923999905586, 2.098079700022936, 2.7434880000073463, 1.8851113999262452, 1.5816571998875588, 2.4682905001100153, 2.551483500050381, 3.6314028999768198]","[5.331316500203684, 5.636258800048381, 4.816592999966815, 4.49815719993785, 3.7143385000526905, 3.1334343999624252, 5.547276700148359, 3.634594799950719, 2.3143195000011474, 3.3819162000436336, 4.231013500131667, 4.231814600061625, 7.167150299996138, 2.202028499916196, 3.447803899878636, 1.8484968000557274, 2.066382799996063, 2.262596599990502, 2.149888099869713, 2.8145759999752045, 2.86526450002566, 2.6998938999604434, 3.5166579999495298, 2.78171050013043, 2.348562599858269, 2.375654599862173, 2.513364600017667, 3.264429699862376, 2.6987193999812007, 3.045632000081241, 3.853863700060174, 1.698470100061968, 1.5314609000924975, 3.2644997001625597, 2.0980883999727666, 2.743494699941948, 1.8851189999841154, 1.5816651000641286, 2.4682980000507087, 2.551493299892172, 3.631408300017938]",,sudhanshu,001,2022-11-09_18h23.50.514,tutorial 7,2022.2.2,59.93069614550428,
0.7,1000.0,exp,3,5,41,5,247.40915330010466,248.40925920009613,248.40925920009613,248.40925920009613,space,0.27688009990379214,249.40941112001892,249.7098286000546,249.7098286000546,249.7098286000546,500,42,"[5.331308400025591, 5.636252099880949, 4.816584900021553, 4.498150700004771, 3.714333200128749, 3.1334275000263005, 5.547268700087443, 3.634588399901986, 2.314312499947846, 3.3819099999964237, 4.231005700072274, 4.231807600008324, 7.167142800055444, 2.2020183000713587, 3.4477963999379426, 1.8484889999963343, 2.0663741999305785, 2.2625851000193506, 2.149880199925974, 2.8145701999310404, 2.86525829997845, 2.6998880999162793, 3.5166503998916596, 2.781704100081697, 2.34855469991453, 2.375644699903205, 2.5133591000922024, 3.2644241999369115, 2.6987117000389844, 3.0456270000431687, 3.853853100212291, 1.6984616999980062, 1.5314533999189734, 3.2644923999905586, 2.098079700022936, 2.7434880000073463, 1.8851113999262452, 1.5816571998875588, 2.4682905001100153, 2.551483500050381, 3.6314028999768198, 1.669078999897465]","[5.331316500203684, 5.636258800048381, 4.816592999966815, 4.49815719993785, 3.7143385000526905, 3.1334343999624252, 5.547276700148359, 3.634594799950719, 2.3143195000011474, 3.3819162000436336, 4.231013500131667, 4.231814600061625, 7.167150299996138, 2.202028499916196, 3.447803899878636, 1.8484968000557274, 2.066382799996063, 2.262596599990502, 2.149888099869713, 2.8145759999752045, 2.86526450002566, 2.6998938999604434, 3.5166579999495298, 2.78171050013043, 2.348562599858269, 2.375654599862173, 2.513364600017667, 3.264429699862376, 2.6987193999812007, 3.045632000081241, 3.853863700060174, 1.698470100061968, 1.5314609000924975, 3.2644997001625597, 2.0980883999727666, 2.743494699941948, 1.8851189999841154, 1.5816651000641286, 2.4682980000507087, 2.551493299892172, 3.631408300017938, 1.6690841999370605]",,sudhanshu,001,2022-11-09_18h23.50.514,tutorial 7,2022.2.2,59.93069614550428,
0.4,1000.0,exp,3,6,42,10,251.37592060002498,252.37603219994344,252.37603219994344,252.37603219994344,space,0.6336329998448491,253.426073920005,253.72754650004208,253.72754650004208,253.72754650004208,300,43,"[5.331308400025591, 5.636252099880949, 4.816584900021553, 4.498150700004771, 3.714333200128749, 3.1334275000263005, 5.547268700087443, 3.634588399901986, 2.314312499947846, 3.3819099999964237, 4.231005700072274, 4.231807600008324, 7.167142800055444, 2.2020183000713587, 3.4477963999379426, 1.8484889999963343, 2.0663741999305785, 2.2625851000193506, 2.149880199925974, 2.8145701999310404, 2.86525829997845, 2.6998880999162793, 3.5166503998916596, 2.781704100081697, 2.34855469991453, 2.375644699903205, 2.5133591000922024, 3.2644241999369115, 2.6987117000389844, 3.0456270000431687, 3.853853100212291, 1.6984616999980062, 1.5314533999189734, 3.2644923999905586, 2.098079700022936, 2.7434880000073463, 1.8851113999262452, 1.5816571998875588, 2.4682905001100153, 2.551483500050381, 3.6314028999768198, 1.669078999897465, 2.583192100049928]","[5.331316500203684, 5.636258800048381, 4.816592999966815, 4.49815719993785, 3.7143385000526905, 3.1334343999624252, 5.547276700148359, 3.634594799950719, 2.3143195000011474, 3.3819162000436336, 4.231013500131667, 4.231814600061625, 7.167150299996138, 2.202028499916196, 3.447803899878636, 1.8484968000557274, 2.066382799996063, 2.262596599990502, 2.149888099869713, 2.8145759999752045, 2.86526450002566, 2.6998938999604434, 3.5166579999495298, 2.78171050013043, 2.348562599858269, 2.375654599862173, 2.513364600017667, 3.264429699862376, 2.6987193999812007, 3.045632000081241, 3.853863700060174, 1.698470100061968, 1.5314609000924975, 3.2644997001625597, 2.0980883999727666, 2.743494699941948, 1.8851189999841154, 1.5816651000641286, 2.4682980000507087, 2.551493299892172, 3.631408300017938, 1.6690841999370605, 2.583199900109321]",253.72754650004208,sudhanshu,001,2022-11-09_18h23.50.514,tutorial 7,2022.2.2,59.93069614550428,
0.1,400.0,unexp,3,7,43,0,256.30945340008475,257.3098764999304,257.3098764999304,257.3098764999304,space,0.3279860997572541,257.7597520200303,258.0617893000599,258.0617893000599,258.0617893000599,200,44,"[5.331308400025591, 5.636252099880949, 4.816584900021553, 4.498150700004771, 3.714333200128749, 3.1334275000263005, 5.547268700087443, 3.634588399901986, 2.314312499947846, 3.3819099999964237, 4.231005700072274, 4.231807600008324, 7.167142800055444, 2.2020183000713587, 3.4477963999379426, 1.8484889999963343, 2.0663741999305785, 2.2625851000193506, 2.149880199925974, 2.8145701999310404, 2.86525829997845, 2.6998880999162793, 3.5166503998916596, 2.781704100081697, 2.34855469991453, 2.375644699903205, 2.5133591000922024, 3.2644241999369115, 2.6987117000389844, 3.0456270000431687, 3.853853100212291, 1.6984616999980062, 1.5314533999189734, 3.2644923999905586, 2.098079700022936, 2.7434880000073463, 1.8851113999262452, 1.5816571998875588, 2.4682905001100153, 2.551483500050381, 3.6314028999768198, 1.669078999897465, 2.583192100049928, 2.1979512001853436]","[5.331316500203684, 5.636258800048381, 4.816592999966815, 4.49815719993785, 3.7143385000526905, 3.1334343999624252, 5.547276700148359, 3.634594799950719, 2.3143195000011474, 3.3819162000436336, 4.231013500131667, 4.231814600061625, 7.167150299996138, 2.202028499916196, 3.447803899878636, 1.8484968000557274, 2.066382799996063, 2.262596599990502, 2.149888099869713, 2.8145759999752045, 2.86526450002566, 2.6998938999604434, 3.5166579999495298, 2.78171050013043, 2.348562599858269, 2.375654599862173, 2.513364600017667, 3.264429699862376, 2.6987193999812007, 3.045632000081241, 3.853863700060174, 1.698470100061968, 1.5314609000924975, 3.2644997001625597, 2.0980883999727666, 2.743494699941948, 1.8851189999841154, 1.5816651000641286, 2.4682980000507087, 2.551493299892172, 3.631408300017938, 1.6690841999370605, 2.583199900109321, 2.19795890012756]",,sudhanshu,001,2022-11-09_18h23.50.514,tutorial 7,2022.2.2,59.93069614550428,
0.4,400.0,unexp,3,8,44,1,260.25952850002795,261.25986819993705,261.25986819993705,261.25986819993705,space,0.4166693997103721,262.093435219978,262.39552600006573,262.39552600006573,262.39552600006573,200,45,"[5.331308400025591, 5.636252099880949, 4.816584900021553, 4.498150700004771, 3.714333200128749, 3.1334275000263005, 5.547268700087443, 3.634588399901986, 2.314312499947846, 3.3819099999964237, 4.231005700072274, 4.231807600008324, 7.167142800055444, 2.2020183000713587, 3.4477963999379426, 1.8484889999963343, 2.0663741999305785, 2.2625851000193506, 2.149880199925974, 2.8145701999310404, 2.86525829997845, 2.6998880999162793, 3.5166503998916596, 2.781704100081697, 2.34855469991453, 2.375644699903205, 2.5133591000922024, 3.2644241999369115, 2.6987117000389844, 3.0456270000431687, 3.853853100212291, 1.6984616999980062, 1.5314533999189734, 3.2644923999905586, 2.098079700022936, 2.7434880000073463, 1.8851113999262452, 1.5816571998875588, 2.4682905001100153, 2.551483500050381, 3.6314028999768198, 1.669078999897465, 2.583192100049928, 2.1979512001853436, 3.86515779979527]","[5.331316500203684, 5.636258800048381, 4.816592999966815, 4.49815719993785, 3.7143385000526905, 3.1334343999624252, 5.547276700148359, 3.634594799950719, 2.3143195000011474, 3.3819162000436336, 4.231013500131667, 4.231814600061625, 7.167150299996138, 2.202028499916196, 3.447803899878636, 1.8484968000557274, 2.066382799996063, 2.262596599990502, 2.149888099869713, 2.8145759999752045, 2.86526450002566, 2.6998938999604434, 3.5166579999495298, 2.78171050013043, 2.348562599858269, 2.375654599862173, 2.513364600017667, 3.264429699862376, 2.6987193999812007, 3.045632000081241, 3.853863700060174, 1.698470100061968, 1.5314609000924975, 3.2644997001625597, 2.0980883999727666, 2.743494699941948, 1.8851189999841154, 1.5816651000641286, 2.4682980000507087, 2.551493299892172, 3.631408300017938, 1.6690841999370605, 2.583199900109321, 2.19795890012756, 3.8651642999611795]",,sudhanshu,001,2022-11-09_18h23.50.514,tutorial 7,2022.2.2,59.93069614550428,
0.7,400.0,unexp,3,9,45,2,266.26033210009336,267.2599138999358,267.2599138999358,267.2599138999358,space,0.3078234998974949,268.2936159200268,268.5937141000759,268.5937141000759,268.5937141000759,200,46,"[5.331308400025591, 5.636252099880949, 4.816584900021553, 4.498150700004771, 3.714333200128749, 3.1334275000263005, 5.547268700087443, 3.634588399901986, 2.314312499947846, 3.3819099999964237, 4.231005700072274, 4.231807600008324, 7.167142800055444, 2.2020183000713587, 3.4477963999379426, 1.8484889999963343, 2.0663741999305785, 2.2625851000193506, 2.149880199925974, 2.8145701999310404, 2.86525829997845, 2.6998880999162793, 3.5166503998916596, 2.781704100081697, 2.34855469991453, 2.375644699903205, 2.5133591000922024, 3.2644241999369115, 2.6987117000389844, 3.0456270000431687, 3.853853100212291, 1.6984616999980062, 1.5314533999189734, 3.2644923999905586, 2.098079700022936, 2.7434880000073463, 1.8851113999262452, 1.5816571998875588, 2.4682905001100153, 2.551483500050381, 3.6314028999768198, 1.669078999897465, 2.583192100049928, 2.1979512001853436, 3.86515779979527, 1.7657453999854624]","[5.331316500203684, 5.636258800048381, 4.816592999966815, 4.49815719993785, 3.7143385000526905, 3.1334343999624252, 5.547276700148359, 3.634594799950719, 2.3143195000011474, 3.3819162000436336, 4.231013500131667, 4.231814600061625, 7.167150299996138, 2.202028499916196, 3.447803899878636, 1.8484968000557274, 2.066382799996063, 2.262596599990502, 2.149888099869713, 2.8145759999752045, 2.86526450002566, 2.6998938999604434, 3.5166579999495298, 2.78171050013043, 2.348562599858269, 2.375654599862173, 2.513364600017667, 3.264429699862376, 2.6987193999812007, 3.045632000081241, 3.853863700060174, 1.698470100061968, 1.5314609000924975, 3.2644997001625597, 2.0980883999727666, 2.743494699941948, 1.8851189999841154, 1.5816651000641286, 2.4682980000507087, 2.551493299892172, 3.631408300017938, 1.6690841999370605, 2.583199900109321, 2.19795890012756, 3.8651642999611795, 1.7657538999337703]",,sudhanshu,001,2022-11-09_18h23.50.514,tutorial 7,2022.2.2,59.93069614550428,
0.1,1000.0,exp,3,10,46,6,270.3600989000406,271.36029700003564,271.36029700003564,271.36029700003564,space,0.3405728000216186,271.8269021199318,272.13186650001444,272.13186650001444,272.13186650001444,100,47,"[5.331308400025591, 5.636252099880949, 4.816584900021553, 4.498150700004771, 3.714333200128749, 3.1334275000263005, 5.547268700087443, 3.634588399901986, 2.314312499947846, 3.3819099999964237, 4.231005700072274, 4.231807600008324, 7.167142800055444, 2.2020183000713587, 3.4477963999379426, 1.8484889999963343, 2.0663741999305785, 2.2625851000193506, 2.149880199925974, 2.8145701999310404, 2.86525829997845, 2.6998880999162793, 3.5166503998916596, 2.781704100081697, 2.34855469991453, 2.375644699903205, 2.5133591000922024, 3.2644241999369115, 2.6987117000389844, 3.0456270000431687, 3.853853100212291, 1.6984616999980062, 1.5314533999189734, 3.2644923999905586, 2.098079700022936, 2.7434880000073463, 1.8851113999262452, 1.5816571998875588, 2.4682905001100153, 2.551483500050381, 3.6314028999768198, 1.669078999897465, 2.583192100049928, 2.1979512001853436, 3.86515779979527, 1.7657453999854624, 3.0460049000103027]","[5.331316500203684, 5.636258800048381, 4.816592999966815, 4.49815719993785, 3.7143385000526905, 3.1334343999624252, 5.547276700148359, 3.634594799950719, 2.3143195000011474, 3.3819162000436336, 4.231013500131667, 4.231814600061625, 7.167150299996138, 2.202028499916196, 3.447803899878636, 1.8484968000557274, 2.066382799996063, 2.262596599990502, 2.149888099869713, 2.8145759999752045, 2.86526450002566, 2.6998938999604434, 3.5166579999495298, 2.78171050013043, 2.348562599858269, 2.375654599862173, 2.513364600017667, 3.264429699862376, 2.6987193999812007, 3.045632000081241, 3.853863700060174, 1.698470100061968, 1.5314609000924975, 3.2644997001625597, 2.0980883999727666, 2.743494699941948, 1.8851189999841154, 1.5816651000641286, 2.4682980000507087, 2.551493299892172, 3.631408300017938, 1.6690841999370605, 2.583199900109321, 2.19795890012756, 3.8651642999611795, 1.7657538999337703, 3.0460109999403358]",,sudhanshu,001,2022-11-09_18h23.50.514,tutorial 7,2022.2.2,59.93069614550428,
0.7,1000.0,exp,3,11,47,11,275.1772720001172,276.1770321999211,276.1770321999211,276.1770321999211,space,0.2791310998145491,277.1773834200809,277.4775950999465,277.4775950999465,277.4775950999465,400,48,"[5.331308400025591, 5.636252099880949, 4.816584900021553, 4.498150700004771, 3.714333200128749, 3.1334275000263005, 5.547268700087443, 3.634588399901986, 2.314312499947846, 3.3819099999964237, 4.231005700072274, 4.231807600008324, 7.167142800055444, 2.2020183000713587, 3.4477963999379426, 1.8484889999963343, 2.0663741999305785, 2.2625851000193506, 2.149880199925974, 2.8145701999310404, 2.86525829997845, 2.6998880999162793, 3.5166503998916596, 2.781704100081697, 2.34855469991453, 2.375644699903205, 2.5133591000922024, 3.2644241999369115, 2.6987117000389844, 3.0456270000431687, 3.853853100212291, 1.6984616999980062, 1.5314533999189734, 3.2644923999905586, 2.098079700022936, 2.7434880000073463, 1.8851113999262452, 1.5816571998875588, 2.4682905001100153, 2.551483500050381, 3.6314028999768198, 1.669078999897465, 2.583192100049928, 2.1979512001853436, 3.86515779979527, 1.7657453999854624, 3.0460049000103027, 1.6811305000446737]","[5.331316500203684, 5.636258800048381, 4.816592999966815, 4.49815719993785, 3.7143385000526905, 3.1334343999624252, 5.547276700148359, 3.634594799950719, 2.3143195000011474, 3.3819162000436336, 4.231013500131667, 4.231814600061625, 7.167150299996138, 2.202028499916196, 3.447803899878636, 1.8484968000557274, 2.066382799996063, 2.262596599990502, 2.149888099869713, 2.8145759999752045, 2.86526450002566, 2.6998938999604434, 3.5166579999495298, 2.78171050013043, 2.348562599858269, 2.375654599862173, 2.513364600017667, 3.264429699862376, 2.6987193999812007, 3.045632000081241, 3.853863700060174, 1.698470100061968, 1.5314609000924975, 3.2644997001625597, 2.0980883999727666, 2.743494699941948, 1.8851189999841154, 1.5816651000641286, 2.4682980000507087, 2.551493299892172, 3.631408300017938, 1.6690841999370605, 2.583199900109321, 2.19795890012756, 3.8651642999611795, 1.7657538999337703, 3.0460109999403358, 1.6811383001040667]",,sudhanshu,001,2022-11-09_18h23.50.514,tutorial 7,2022.2.2,59.93069614550428,
0.7,1000.0,exp,4,0,48,11,279.1603409999516,280.16054580011405,280.16054580011405,280.16054580011405,space,0.5473837000317872,281.42767841999887,281.74581290013157,281.74581290013157,281.74581290013157,200,49,"[5.331308400025591, 5.636252099880949, 4.816584900021553, 4.498150700004771, 3.714333200128749, 3.1334275000263005, 5.547268700087443, 3.634588399901986, 2.314312499947846, 3.3819099999964237, 4.231005700072274, 4.231807600008324, 7.167142800055444, 2.2020183000713587, 3.4477963999379426, 1.8484889999963343, 2.0663741999305785, 2.2625851000193506, 2.149880199925974, 2.8145701999310404, 2.86525829997845, 2.6998880999162793, 3.5166503998916596, 2.781704100081697, 2.34855469991453, 2.375644699903205, 2.5133591000922024, 3.2644241999369115, 2.6987117000389844, 3.0456270000431687, 3.853853100212291, 1.6984616999980062, 1.5314533999189734, 3.2644923999905586, 2.098079700022936, 2.7434880000073463, 1.8851113999262452, 1.5816571998875588, 2.4682905001100153, 2.551483500050381, 3.6314028999768198, 1.669078999897465, 2.583192100049928, 2.1979512001853436, 3.86515779979527, 1.7657453999854624, 3.0460049000103027, 1.6811305000446737, 1.8865654000546783]","[5.331316500203684, 5.636258800048381, 4.816592999966815, 4.49815719993785, 3.7143385000526905, 3.1334343999624252, 5.547276700148359, 3.634594799950719, 2.3143195000011474, 3.3819162000436336, 4.231013500131667, 4.231814600061625, 7.167150299996138, 2.202028499916196, 3.447803899878636, 1.8484968000557274, 2.066382799996063, 2.262596599990502, 2.149888099869713, 2.8145759999752045, 2.86526450002566, 2.6998938999604434, 3.5166579999495298, 2.78171050013043, 2.348562599858269, 2.375654599862173, 2.513364600017667, 3.264429699862376, 2.6987193999812007, 3.045632000081241, 3.853863700060174, 1.698470100061968, 1.5314609000924975, 3.2644997001625597, 2.0980883999727666, 2.743494699941948, 1.8851189999841154, 1.5816651000641286, 2.4682980000507087, 2.551493299892172, 3.631408300017938, 1.6690841999370605, 2.583199900109321, 2.19795890012756, 3.8651642999611795, 1.7657538999337703, 3.0460109999403358, 1.6811383001040667, 1.8865731998812407]",,sudhanshu,001,2022-11-09_18h23.50.514,tutorial 7,2022.2.2,59.93069614550428,
0.1,1000.0,exp,4,1,49,6,283.6106943001505,284.61059219995514,284.61059219995514,284.61059219995514,space,0.3543672999367118,285.09411742005034,285.3943034999538,285.3943034999538,285.3943034999538,100,50,"[5.331308400025591, 5.636252099880949, 4.816584900021553, 4.498150700004771, 3.714333200128749, 3.1334275000263005, 5.547268700087443, 3.634588399901986, 2.314312499947846, 3.3819099999964237, 4.231005700072274, 4.231807600008324, 7.167142800055444, 2.2020183000713587, 3.4477963999379426, 1.8484889999963343, 2.0663741999305785, 2.2625851000193506, 2.149880199925974, 2.8145701999310404, 2.86525829997845, 2.6998880999162793, 3.5166503998916596, 2.781704100081697, 2.34855469991453, 2.375644699903205, 2.5133591000922024, 3.2644241999369115, 2.6987117000389844, 3.0456270000431687, 3.853853100212291, 1.6984616999980062, 1.5314533999189734, 3.2644923999905586, 2.098079700022936, 2.7434880000073463, 1.8851113999262452, 1.5816571998875588, 2.4682905001100153, 2.551483500050381, 3.6314028999768198, 1.669078999897465, 2.583192100049928, 2.1979512001853436, 3.86515779979527, 1.7657453999854624, 3.0460049000103027, 1.6811305000446737, 1.8865654000546783, 1.9161610000301152]","[5.331316500203684, 5.636258800048381, 4.816592999966815, 4.49815719993785, 3.7143385000526905, 3.1334343999624252, 5.547276700148359, 3.634594799950719, 2.3143195000011474, 3.3819162000436336, 4.231013500131667, 4.231814600061625, 7.167150299996138, 2.202028499916196, 3.447803899878636, 1.8484968000557274, 2.066382799996063, 2.262596599990502, 2.149888099869713, 2.8145759999752045, 2.86526450002566, 2.6998938999604434, 3.5166579999495298, 2.78171050013043, 2.348562599858269, 2.375654599862173, 2.513364600017667, 3.264429699862376, 2.6987193999812007, 3.045632000081241, 3.853863700060174, 1.698470100061968, 1.5314609000924975, 3.2644997001625597, 2.0980883999727666, 2.743494699941948, 1.8851189999841154, 1.5816651000641286, 2.4682980000507087, 2.551493299892172, 3.631408300017938, 1.6690841999370605, 2.583199900109321, 2.19795890012756, 3.8651642999611795, 1.7657538999337703, 3.0460109999403358, 1.6811383001040667, 1.8865731998812407, 1.9161666999571025]",,sudhanshu,001,2022-11-09_18h23.50.514,tutorial 7,2022.2.2,59.93069614550428,
0.1,1000.0,exp,4,2,50,9,287.3108024999965,288.31131110014394,288.31131110014394,288.31131110014394,space,1.4009499999228865,289.82793092008217,290.13041480001993,290.13041480001993,290.13041480001993,200,51,"[5.331308400025591, 5.636252099880949, 4.816584900021553, 4.498150700004771, 3.714333200128749, 3.1334275000263005, 5.547268700087443, 3.634588399901986, 2.314312499947846, 3.3819099999964237, 4.231005700072274, 4.231807600008324, 7.167142800055444, 2.2020183000713587, 3.4477963999379426, 1.8484889999963343, 2.0663741999305785, 2.2625851000193506, 2.149880199925974, 2.8145701999310404, 2.86525829997845, 2.6998880999162793, 3.5166503998916596, 2.781704100081697, 2.34855469991453, 2.375644699903205, 2.5133591000922024, 3.2644241999369115, 2.6987117000389844, 3.0456270000431687, 3.853853100212291, 1.6984616999980062, 1.5314533999189734, 3.2644923999905586, 2.098079700022936, 2.7434880000073463, 1.8851113999262452, 1.5816571998875588, 2.4682905001100153, 2.551483500050381, 3.6314028999768198, 1.669078999897465, 2.583192100049928, 2.1979512001853436, 3.86515779979527, 1.7657453999854624, 3.0460049000103027, 1.6811305000446737, 1.8865654000546783, 1.9161610000301152, 1.814798800041899]","[5.331316500203684, 5.636258800048381, 4.816592999966815, 4.49815719993785, 3.7143385000526905, 3.1334343999624252, 5.547276700148359, 3.634594799950719, 2.3143195000011474, 3.3819162000436336, 4.231013500131667, 4.231814600061625, 7.167150299996138, 2.202028499916196, 3.447803899878636, 1.8484968000557274, 2.066382799996063, 2.262596599990502, 2.149888099869713, 2.8145759999752045, 2.86526450002566, 2.6998938999604434, 3.5166579999495298, 2.78171050013043, 2.348562599858269, 2.375654599862173, 2.513364600017667, 3.264429699862376, 2.6987193999812007, 3.045632000081241, 3.853863700060174, 1.698470100061968, 1.5314609000924975, 3.2644997001625597, 2.0980883999727666, 2.743494699941948, 1.8851189999841154, 1.5816651000641286, 2.4682980000507087, 2.551493299892172, 3.631408300017938, 1.6690841999370605, 2.583199900109321, 2.19795890012756, 3.8651642999611795, 1.7657538999337703, 3.0460109999403358, 1.6811383001040667, 1.8865731998812407, 1.9161666999571025, 1.8148066001012921]",290.13041480001993,sudhanshu,001,2022-11-09_18h23.50.514,tutorial 7,2022.2.2,59.93069614550428,
0.7,1000.0,exp,4,3,51,8,291.9444792000577,292.9445388999302,292.9445388999302,292.9445388999302,space,0.3737025000154972,294.04470662006645,294.34673009999096,294.34673009999096,294.34673009999096,100,52,"[5.331308400025591, 5.636252099880949, 4.816584900021553, 4.498150700004771, 3.714333200128749, 3.1334275000263005, 5.547268700087443, 3.634588399901986, 2.314312499947846, 3.3819099999964237, 4.231005700072274, 4.231807600008324, 7.167142800055444, 2.2020183000713587, 3.4477963999379426, 1.8484889999963343, 2.0663741999305785, 2.2625851000193506, 2.149880199925974, 2.8145701999310404, 2.86525829997845, 2.6998880999162793, 3.5166503998916596, 2.781704100081697, 2.34855469991453, 2.375644699903205, 2.5133591000922024, 3.2644241999369115, 2.6987117000389844, 3.0456270000431687, 3.853853100212291, 1.6984616999980062, 1.5314533999189734, 3.2644923999905586, 2.098079700022936, 2.7434880000073463, 1.8851113999262452, 1.5816571998875588, 2.4682905001100153, 2.551483500050381, 3.6314028999768198, 1.669078999897465, 2.583192100049928, 2.1979512001853436, 3.86515779979527, 1.7657453999854624, 3.0460049000103027, 1.6811305000446737, 1.8865654000546783, 1.9161610000301152, 1.814798800041899, 3.4086897000670433]","[5.331316500203684, 5.636258800048381, 4.816592999966815, 4.49815719993785, 3.7143385000526905, 3.1334343999624252, 5.547276700148359, 3.634594799950719, 2.3143195000011474, 3.3819162000436336, 4.231013500131667, 4.231814600061625, 7.167150299996138, 2.202028499916196, 3.447803899878636, 1.8484968000557274, 2.066382799996063, 2.262596599990502, 2.149888099869713, 2.8145759999752045, 2.86526450002566, 2.6998938999604434, 3.5166579999495298, 2.78171050013043, 2.348562599858269, 2.375654599862173, 2.513364600017667, 3.264429699862376, 2.6987193999812007, 3.045632000081241, 3.853863700060174, 1.698470100061968, 1.5314609000924975, 3.2644997001625597, 2.0980883999727666, 2.743494699941948, 1.8851189999841154, 1.5816651000641286, 2.4682980000507087, 2.551493299892172, 3.631408300017938, 1.6690841999370605, 2.583199900109321, 2.19795890012756, 3.8651642999611795, 1.7657538999337703, 3.0460109999403358, 1.6811383001040667, 1.8865731998812407, 1.9161666999571025, 1.8148066001012921, 3.4087002999149263]",294.34673009999096,sudhanshu,001,2022-11-09_18h23.50.514,tutorial 7,2022.2.2,59.93069614550428,
0.4,1000.0,exp,4,4,52,7,297.74705919995904,298.74482950009406,298.74482950009406,298.7698260000907,space,0.4166522996965796,299.57818631993143,299.8787597999908,299.8787597999908,299.8787597999908,300,53,"[5.331308400025591, 5.636252099880949, 4.816584900021553, 4.498150700004771, 3.714333200128749, 3.1334275000263005, 5.547268700087443, 3.634588399901986, 2.314312499947846, 3.3819099999964237, 4.231005700072274, 4.231807600008324, 7.167142800055444, 2.2020183000713587, 3.4477963999379426, 1.8484889999963343, 2.0663741999305785, 2.2625851000193506, 2.149880199925974, 2.8145701999310404, 2.86525829997845, 2.6998880999162793, 3.5166503998916596, 2.781704100081697, 2.34855469991453, 2.375644699903205, 2.5133591000922024, 3.2644241999369115, 2.6987117000389844, 3.0456270000431687, 3.853853100212291, 1.6984616999980062, 1.5314533999189734, 3.2644923999905586, 2.098079700022936, 2.7434880000073463, 1.8851113999262452, 1.5816571998875588, 2.4682905001100153, 2.551483500050381, 3.6314028999768198, 1.669078999897465, 2.583192100049928, 2.1979512001853436, 3.86515779979527, 1.7657453999854624, 3.0460049000103027, 1.6811305000446737, 1.8865654000546783, 1.9161610000301152, 1.814798800041899, 3.4086897000670433, 2.4481646998319775]","[5.331316500203684, 5.636258800048381, 4.816592999966815, 4.49815719993785, 3.7143385000526905, 3.1334343999624252, 5.547276700148359, 3.634594799950719, 2.3143195000011474, 3.3819162000436336, 4.231013500131667, 4.231814600061625, 7.167150299996138, 2.202028499916196, 3.447803899878636, 1.8484968000557274, 2.066382799996063, 2.262596599990502, 2.149888099869713, 2.8145759999752045, 2.86526450002566, 2.6998938999604434, 3.5166579999495298, 2.78171050013043, 2.348562599858269, 2.375654599862173, 2.513364600017667, 3.264429699862376, 2.6987193999812007, 3.045632000081241, 3.853863700060174, 1.698470100061968, 1.5314609000924975, 3.2644997001625597, 2.0980883999727666, 2.743494699941948, 1.8851189999841154, 1.5816651000641286, 2.4682980000507087, 2.551493299892172, 3.631408300017938, 1.6690841999370605, 2.583199900109321, 2.19795890012756, 3.8651642999611795, 1.7657538999337703, 3.0460109999403358, 1.6811383001040667, 1.8865731998812407, 1.9161666999571025, 1.8148066001012921, 3.4087002999149263, 2.448175799800083]",299.8787597999908,sudhanshu,001,2022-11-09_18h23.50.514,tutorial 7,2022.2.2,59.93069614550428,
0.4,1000.0,exp,4,5,53,4,302.32816909998655,303.3284158001188,303.3284158001188,303.3284158001188,space,0.29187819990329444,304.04510482007174,304.3573596000206,304.3573596000206,304.3573596000206,100,54,"[5.331308400025591, 5.636252099880949, 4.816584900021553, 4.498150700004771, 3.714333200128749, 3.1334275000263005, 5.547268700087443, 3.634588399901986, 2.314312499947846, 3.3819099999964237, 4.231005700072274, 4.231807600008324, 7.167142800055444, 2.2020183000713587, 3.4477963999379426, 1.8484889999963343, 2.0663741999305785, 2.2625851000193506, 2.149880199925974, 2.8145701999310404, 2.86525829997845, 2.6998880999162793, 3.5166503998916596, 2.781704100081697, 2.34855469991453, 2.375644699903205, 2.5133591000922024, 3.2644241999369115, 2.6987117000389844, 3.0456270000431687, 3.853853100212291, 1.6984616999980062, 1.5314533999189734, 3.2644923999905586, 2.098079700022936, 2.7434880000073463, 1.8851113999262452, 1.5816571998875588, 2.4682905001100153, 2.551483500050381, 3.6314028999768198, 1.669078999897465, 2.583192100049928, 2.1979512001853436, 3.86515779979527, 1.7657453999854624, 3.0460049000103027, 1.6811305000446737, 1.8865654000546783, 1.9161610000301152, 1.814798800041899, 3.4086897000670433, 2.4481646998319775, 1.9574293999467045]","[5.331316500203684, 5.636258800048381, 4.816592999966815, 4.49815719993785, 3.7143385000526905, 3.1334343999624252, 5.547276700148359, 3.634594799950719, 2.3143195000011474, 3.3819162000436336, 4.231013500131667, 4.231814600061625, 7.167150299996138, 2.202028499916196, 3.447803899878636, 1.8484968000557274, 2.066382799996063, 2.262596599990502, 2.149888099869713, 2.8145759999752045, 2.86526450002566, 2.6998938999604434, 3.5166579999495298, 2.78171050013043, 2.348562599858269, 2.375654599862173, 2.513364600017667, 3.264429699862376, 2.6987193999812007, 3.045632000081241, 3.853863700060174, 1.698470100061968, 1.5314609000924975, 3.2644997001625597, 2.0980883999727666, 2.743494699941948, 1.8851189999841154, 1.5816651000641286, 2.4682980000507087, 2.551493299892172, 3.631408300017938, 1.6690841999370605, 2.583199900109321, 2.19795890012756, 3.8651642999611795, 1.7657538999337703, 3.0460109999403358, 1.6811383001040667, 1.8865731998812407, 1.9161666999571025, 1.8148066001012921, 3.4087002999149263, 2.448175799800083, 1.9574378000106663]",,sudhanshu,001,2022-11-09_18h23.50.514,tutorial 7,2022.2.2,59.93069614550428,
0.1,400.0,unexp,4,6,54,0,306.31170219997875,307.311798900133,307.311798900133,307.311798900133,space,0.31613819976337254,307.74569471997677,308.06681370013393,308.06681370013393,308.06681370013393,200,55,"[5.331308400025591, 5.636252099880949, 4.816584900021553, 4.498150700004771, 3.714333200128749, 3.1334275000263005, 5.547268700087443, 3.634588399901986, 2.314312499947846, 3.3819099999964237, 4.231005700072274, 4.231807600008324, 7.167142800055444, 2.2020183000713587, 3.4477963999379426, 1.8484889999963343, 2.0663741999305785, 2.2625851000193506, 2.149880199925974, 2.8145701999310404, 2.86525829997845, 2.6998880999162793, 3.5166503998916596, 2.781704100081697, 2.34855469991453, 2.375644699903205, 2.5133591000922024, 3.2644241999369115, 2.6987117000389844, 3.0456270000431687, 3.853853100212291, 1.6984616999980062, 1.5314533999189734, 3.2644923999905586, 2.098079700022936, 2.7434880000073463, 1.8851113999262452, 1.5816571998875588, 2.4682905001100153, 2.551483500050381, 3.6314028999768198, 1.669078999897465, 2.583192100049928, 2.1979512001853436, 3.86515779979527, 1.7657453999854624, 3.0460049000103027, 1.6811305000446737, 1.8865654000546783, 1.9161610000301152, 1.814798800041899, 3.4086897000670433, 2.4481646998319775, 1.9574293999467045, 1.5673511000350118]","[5.331316500203684, 5.636258800048381, 4.816592999966815, 4.49815719993785, 3.7143385000526905, 3.1334343999624252, 5.547276700148359, 3.634594799950719, 2.3143195000011474, 3.3819162000436336, 4.231013500131667, 4.231814600061625, 7.167150299996138, 2.202028499916196, 3.447803899878636, 1.8484968000557274, 2.066382799996063, 2.262596599990502, 2.149888099869713, 2.8145759999752045, 2.86526450002566, 2.6998938999604434, 3.5166579999495298, 2.78171050013043, 2.348562599858269, 2.375654599862173, 2.513364600017667, 3.264429699862376, 2.6987193999812007, 3.045632000081241, 3.853863700060174, 1.698470100061968, 1.5314609000924975, 3.2644997001625597, 2.0980883999727666, 2.743494699941948, 1.8851189999841154, 1.5816651000641286, 2.4682980000507087, 2.551493299892172, 3.631408300017938, 1.6690841999370605, 2.583199900109321, 2.19795890012756, 3.8651642999611795, 1.7657538999337703, 3.0460109999403358, 1.6811383001040667, 1.8865731998812407, 1.9161666999571025, 1.8148066001012921, 3.4087002999149263, 2.448175799800083, 1.9574378000106663, 1.5673626998905092]",308.06681370013393,sudhanshu,001,2022-11-09_18h23.50.514,tutorial 7,2022.2.2,59.93069614550428,
0.7,1000.0,exp,4,7,55,5,309.6118743000552,310.612064700108,310.612064700108,310.612064700108,space,0.5741260999348015,311.9122331200866,312.2122281000484,312.2122281000484,312.2122281000484,300,56,"[5.331308400025591, 5.636252099880949, 4.816584900021553, 4.498150700004771, 3.714333200128749, 3.1334275000263005, 5.547268700087443, 3.634588399901986, 2.314312499947846, 3.3819099999964237, 4.231005700072274, 4.231807600008324, 7.167142800055444, 2.2020183000713587, 3.4477963999379426, 1.8484889999963343, 2.0663741999305785, 2.2625851000193506, 2.149880199925974, 2.8145701999310404, 2.86525829997845, 2.6998880999162793, 3.5166503998916596, 2.781704100081697, 2.34855469991453, 2.375644699903205, 2.5133591000922024, 3.2644241999369115, 2.6987117000389844, 3.0456270000431687, 3.853853100212291, 1.6984616999980062, 1.5314533999189734, 3.2644923999905586, 2.098079700022936, 2.7434880000073463, 1.8851113999262452, 1.5816571998875588, 2.4682905001100153, 2.551483500050381, 3.6314028999768198, 1.669078999897465, 2.583192100049928, 2.1979512001853436, 3.86515779979527, 1.7657453999854624, 3.0460049000103027, 1.6811305000446737, 1.8865654000546783, 1.9161610000301152, 1.814798800041899, 3.4086897000670433, 2.4481646998319775, 1.9574293999467045, 1.5673511000350118, 1.5984096000902355]","[5.331316500203684, 5.636258800048381, 4.816592999966815, 4.49815719993785, 3.7143385000526905, 3.1334343999624252, 5.547276700148359, 3.634594799950719, 2.3143195000011474, 3.3819162000436336, 4.231013500131667, 4.231814600061625, 7.167150299996138, 2.202028499916196, 3.447803899878636, 1.8484968000557274, 2.066382799996063, 2.262596599990502, 2.149888099869713, 2.8145759999752045, 2.86526450002566, 2.6998938999604434, 3.5166579999495298, 2.78171050013043, 2.348562599858269, 2.375654599862173, 2.513364600017667, 3.264429699862376, 2.6987193999812007, 3.045632000081241, 3.853863700060174, 1.698470100061968, 1.5314609000924975, 3.2644997001625597, 2.0980883999727666, 2.743494699941948, 1.8851189999841154, 1.5816651000641286, 2.4682980000507087, 2.551493299892172, 3.631408300017938, 1.6690841999370605, 2.583199900109321, 2.19795890012756, 3.8651642999611795, 1.7657538999337703, 3.0460109999403358, 1.6811383001040667, 1.8865731998812407, 1.9161666999571025, 1.8148066001012921, 3.4087002999149263, 2.448175799800083, 1.9574378000106663, 1.5673626998905092, 1.5984175000339746]",,sudhanshu,001,2022-11-09_18h23.50.514,tutorial 7,2022.2.2,59.93069614550428,
0.4,1000.0,exp,4,8,56,10,313.81199089996517,314.81223229994066,314.81223229994066,314.81223229994066,space,0.7354073999449611,315.97868302001154,316.3007861999795,316.3007861999795,316.3007861999795,400,57,"[5.331308400025591, 5.636252099880949, 4.816584900021553, 4.498150700004771, 3.714333200128749, 3.1334275000263005, 5.547268700087443, 3.634588399901986, 2.314312499947846, 3.3819099999964237, 4.231005700072274, 4.231807600008324, 7.167142800055444, 2.2020183000713587, 3.4477963999379426, 1.8484889999963343, 2.0663741999305785, 2.2625851000193506, 2.149880199925974, 2.8145701999310404, 2.86525829997845, 2.6998880999162793, 3.5166503998916596, 2.781704100081697, 2.34855469991453, 2.375644699903205, 2.5133591000922024, 3.2644241999369115, 2.6987117000389844, 3.0456270000431687, 3.853853100212291, 1.6984616999980062, 1.5314533999189734, 3.2644923999905586, 2.098079700022936, 2.7434880000073463, 1.8851113999262452, 1.5816571998875588, 2.4682905001100153, 2.551483500050381, 3.6314028999768198, 1.669078999897465, 2.583192100049928, 2.1979512001853436, 3.86515779979527, 1.7657453999854624, 3.0460049000103027, 1.6811305000446737, 1.8865654000546783, 1.9161610000301152, 1.814798800041899, 3.4086897000670433, 2.4481646998319775, 1.9574293999467045, 1.5673511000350118, 1.5984096000902355, 1.6812440999783576]","[5.331316500203684, 5.636258800048381, 4.816592999966815, 4.49815719993785, 3.7143385000526905, 3.1334343999624252, 5.547276700148359, 3.634594799950719, 2.3143195000011474, 3.3819162000436336, 4.231013500131667, 4.231814600061625, 7.167150299996138, 2.202028499916196, 3.447803899878636, 1.8484968000557274, 2.066382799996063, 2.262596599990502, 2.149888099869713, 2.8145759999752045, 2.86526450002566, 2.6998938999604434, 3.5166579999495298, 2.78171050013043, 2.348562599858269, 2.375654599862173, 2.513364600017667, 3.264429699862376, 2.6987193999812007, 3.045632000081241, 3.853863700060174, 1.698470100061968, 1.5314609000924975, 3.2644997001625597, 2.0980883999727666, 2.743494699941948, 1.8851189999841154, 1.5816651000641286, 2.4682980000507087, 2.551493299892172, 3.631408300017938, 1.6690841999370605, 2.583199900109321, 2.19795890012756, 3.8651642999611795, 1.7657538999337703, 3.0460109999403358, 1.6811383001040667, 1.8865731998812407, 1.9161666999571025, 1.8148066001012921, 3.4087002999149263, 2.448175799800083, 1.9574378000106663, 1.5673626998905092, 1.5984175000339746, 1.681249000132084]",316.3007861999795,sudhanshu,001,2022-11-09_18h23.50.514,tutorial 7,2022.2.2,59.93069614550428,
0.1,1000.0,exp,4,9,57,3,317.96217570011504,318.9623320000246,318.9623320000246,318.9623320000246,space,1.183480499777943,320.2624744200381,320.56463619996794,320.56463619996794,320.56463619996794,100,58,"[5.331308400025591, 5.636252099880949, 4.816584900021553, 4.498150700004771, 3.714333200128749, 3.1334275000263005, 5.547268700087443, 3.634588399901986, 2.314312499947846, 3.3819099999964237, 4.231005700072274, 4.231807600008324, 7.167142800055444, 2.2020183000713587, 3.4477963999379426, 1.8484889999963343, 2.0663741999305785, 2.2625851000193506, 2.149880199925974, 2.8145701999310404, 2.86525829997845, 2.6998880999162793, 3.5166503998916596, 2.781704100081697, 2.34855469991453, 2.375644699903205, 2.5133591000922024, 3.2644241999369115, 2.6987117000389844, 3.0456270000431687, 3.853853100212291, 1.6984616999980062, 1.5314533999189734, 3.2644923999905586, 2.098079700022936, 2.7434880000073463, 1.8851113999262452, 1.5816571998875588, 2.4682905001100153, 2.551483500050381, 3.6314028999768198, 1.669078999897465, 2.583192100049928, 2.1979512001853436, 3.86515779979527, 1.7657453999854624, 3.0460049000103027, 1.6811305000446737, 1.8865654000546783, 1.9161610000301152, 1.814798800041899, 3.4086897000670433, 2.4481646998319775, 1.9574293999467045, 1.5673511000350118, 1.5984096000902355, 1.6812440999783576, 3.4380568999331445]","[5.331316500203684, 5.636258800048381, 4.816592999966815, 4.49815719993785, 3.7143385000526905, 3.1334343999624252, 5.547276700148359, 3.634594799950719, 2.3143195000011474, 3.3819162000436336, 4.231013500131667, 4.231814600061625, 7.167150299996138, 2.202028499916196, 3.447803899878636, 1.8484968000557274, 2.066382799996063, 2.262596599990502, 2.149888099869713, 2.8145759999752045, 2.86526450002566, 2.6998938999604434, 3.5166579999495298, 2.78171050013043, 2.348562599858269, 2.375654599862173, 2.513364600017667, 3.264429699862376, 2.6987193999812007, 3.045632000081241, 3.853863700060174, 1.698470100061968, 1.5314609000924975, 3.2644997001625597, 2.0980883999727666, 2.743494699941948, 1.8851189999841154, 1.5816651000641286, 2.4682980000507087, 2.551493299892172, 3.631408300017938, 1.6690841999370605, 2.583199900109321, 2.19795890012756, 3.8651642999611795, 1.7657538999337703, 3.0460109999403358, 1.6811383001040667, 1.8865731998812407, 1.9161666999571025, 1.8148066001012921, 3.4087002999149263, 2.448175799800083, 1.9574378000106663, 1.5673626998905092, 1.5984175000339746, 1.681249000132084, 3.4380624000914395]",,sudhanshu,001,2022-11-09_18h23.50.514,tutorial 7,2022.2.2,59.93069614550428,
0.4,400.0,unexp,4,10,58,1,323.99548560008407,324.9959730999544,324.9959730999544,324.9959730999544,space,0.4073428998235613,325.8294348200085,326.1456315999385,326.1456315999385,326.1456315999385,50,59,"[5.331308400025591, 5.636252099880949, 4.816584900021553, 4.498150700004771, 3.714333200128749, 3.1334275000263005, 5.547268700087443, 3.634588399901986, 2.314312499947846, 3.3819099999964237, 4.231005700072274, 4.231807600008324, 7.167142800055444, 2.2020183000713587, 3.4477963999379426, 1.8484889999963343, 2.0663741999305785, 2.2625851000193506, 2.149880199925974, 2.8145701999310404, 2.86525829997845, 2.6998880999162793, 3.5166503998916596, 2.781704100081697, 2.34855469991453, 2.375644699903205, 2.5133591000922024, 3.2644241999369115, 2.6987117000389844, 3.0456270000431687, 3.853853100212291, 1.6984616999980062, 1.5314533999189734, 3.2644923999905586, 2.098079700022936, 2.7434880000073463, 1.8851113999262452, 1.5816571998875588, 2.4682905001100153, 2.551483500050381, 3.6314028999768198, 1.669078999897465, 2.583192100049928, 2.1979512001853436, 3.86515779979527, 1.7657453999854624, 3.0460049000103027, 1.6811305000446737, 1.8865654000546783, 1.9161610000301152, 1.814798800041899, 3.4086897000670433, 2.4481646998319775, 1.9574293999467045, 1.5673511000350118, 1.5984096000902355, 1.6812440999783576, 3.4380568999331445, 2.3831611000932753]","[5.331316500203684, 5.636258800048381, 4.816592999966815, 4.49815719993785, 3.7143385000526905, 3.1334343999624252, 5.547276700148359, 3.634594799950719, 2.3143195000011474, 3.3819162000436336, 4.231013500131667, 4.231814600061625, 7.167150299996138, 2.202028499916196, 3.447803899878636, 1.8484968000557274, 2.066382799996063, 2.262596599990502, 2.149888099869713, 2.8145759999752045, 2.86526450002566, 2.6998938999604434, 3.5166579999495298, 2.78171050013043, 2.348562599858269, 2.375654599862173, 2.513364600017667, 3.264429699862376, 2.6987193999812007, 3.045632000081241, 3.853863700060174, 1.698470100061968, 1.5314609000924975, 3.2644997001625597, 2.0980883999727666, 2.743494699941948, 1.8851189999841154, 1.5816651000641286, 2.4682980000507087, 2.551493299892172, 3.631408300017938, 1.6690841999370605, 2.583199900109321, 2.19795890012756, 3.8651642999611795, 1.7657538999337703, 3.0460109999403358, 1.6811383001040667, 1.8865731998812407, 1.9161666999571025, 1.8148066001012921, 3.4087002999149263, 2.448175799800083, 1.9574378000106663, 1.5673626998905092, 1.5984175000339746, 1.681249000132084, 3.4380624000914395, 2.3831706000491977]",,sudhanshu,001,2022-11-09_18h23.50.514,tutorial 7,2022.2.2,59.93069614550428,
0.7,400.0,unexp,4,11,59,2,328.51288500009105,329.5129577999469,329.5129577999469,329.5129577999469,space,1.3412778000347316,331.5798872199608,331.879644599976,331.879644599976,331.879644599976,200,60,"[5.331308400025591, 5.636252099880949, 4.816584900021553, 4.498150700004771, 3.714333200128749, 3.1334275000263005, 5.547268700087443, 3.634588399901986, 2.314312499947846, 3.3819099999964237, 4.231005700072274, 4.231807600008324, 7.167142800055444, 2.2020183000713587, 3.4477963999379426, 1.8484889999963343, 2.0663741999305785, 2.2625851000193506, 2.149880199925974, 2.8145701999310404, 2.86525829997845, 2.6998880999162793, 3.5166503998916596, 2.781704100081697, 2.34855469991453, 2.375644699903205, 2.5133591000922024, 3.2644241999369115, 2.6987117000389844, 3.0456270000431687, 3.853853100212291, 1.6984616999980062, 1.5314533999189734, 3.2644923999905586, 2.098079700022936, 2.7434880000073463, 1.8851113999262452, 1.5816571998875588, 2.4682905001100153, 2.551483500050381, 3.6314028999768198, 1.669078999897465, 2.583192100049928, 2.1979512001853436, 3.86515779979527, 1.7657453999854624, 3.0460049000103027, 1.6811305000446737, 1.8865654000546783, 1.9161610000301152, 1.814798800041899, 3.4086897000670433, 2.4481646998319775, 1.9574293999467045, 1.5673511000350118, 1.5984096000902355, 1.6812440999783576, 3.4380568999331445, 2.3831611000932753, 3.2006288999691606]","[5.331316500203684, 5.636258800048381, 4.816592999966815, 4.49815719993785, 3.7143385000526905, 3.1334343999624252, 5.547276700148359, 3.634594799950719, 2.3143195000011474, 3.3819162000436336, 4.231013500131667, 4.231814600061625, 7.167150299996138, 2.202028499916196, 3.447803899878636, 1.8484968000557274, 2.066382799996063, 2.262596599990502, 2.149888099869713, 2.8145759999752045, 2.86526450002566, 2.6998938999604434, 3.5166579999495298, 2.78171050013043, 2.348562599858269, 2.375654599862173, 2.513364600017667, 3.264429699862376, 2.6987193999812007, 3.045632000081241, 3.853863700060174, 1.698470100061968, 1.5314609000924975, 3.2644997001625597, 2.0980883999727666, 2.743494699941948, 1.8851189999841154, 1.5816651000641286, 2.4682980000507087, 2.551493299892172, 3.631408300017938, 1.6690841999370605, 2.583199900109321, 2.19795890012756, 3.8651642999611795, 1.7657538999337703, 3.0460109999403358, 1.6811383001040667, 1.8865731998812407, 1.9161666999571025, 1.8148066001012921, 3.4087002999149263, 2.448175799800083, 1.9574378000106663, 1.5673626998905092, 1.5984175000339746, 1.681249000132084, 3.4380624000914395, 2.3831706000491977, 3.200634599896148]",331.879644599976,sudhanshu,001,2022-11-09_18h23.50.514,tutorial 7,2022.2.2,59.93069614550428,
